{
  "resourceType": "Bundle",
  "identifier": {
    "system": "http://uk-koeln.de/fhir/sid/bundle-identifier",
    "value": "397deb72c7d54b1c845225fbaeba1d90"
  },
  "type": "document",
  "timestamp": "2022-09-02T15:33:42+02:00",
  "entry": [
    {
      "resource": {
        "resourceType": "Composition",
        "id": "2a06b4ad53ed471892e0ad886ef08355",
        "meta": {
          "profile": [
            "http://uk-koeln.de/fhir/StructureDefinition/nNGM/Composition"
          ]
        },
        "identifier": {
          "system": "http://uk-koeln.de/fhir/sid/nngm-case-no",
          "value": "031858-000"
        },
        "status": "final",
        "type": {
          "coding": [
            {
              "system": "http://loinc.org",
              "code": "11503-0"
            }
          ]
        },
        "subject": {
          "reference": "Patient/5bac5cba396a45d0b8de9e441a3209ef",
          "identifier": {
            "system": "http://uk-koeln.de/fhir/sid/nNGM/patient-pseudonym",
            "value": "031858"
          }
        },
        "date": "2022-09-02T15:26:42+02:00",
        "author": [
          {
            "reference": "Organization/16e9a1beaeb649428c49b64bfde2b5b9"
          }
        ],
        "title": "Composition 2a06b4ad53ed471892e0ad886ef08355",
        "section": [
          {
            "code": {
              "coding": [
                {
                  "system": "http://uk-koeln.de/fhir/CodeSystem/nNGM/CompositionSectionType",
                  "code": "CONSENT"
                }
              ]
            },
            "entry": [
              {
                "reference": "Consent/c622c46d4d5e41cc82f73297ab31a99f"
              },
              {
                "reference": "Consent/9e814ef089064f0eb9a96f4754eb6a26"
              },
              {
                "reference": "Consent/fbfb1074555e42cb8356aac3c676d40e"
              },
              {
                "reference": "Consent/3b32d14b89684cd59d7dbac7b452ee58"
              },
              {
                "reference": "Consent/ba9880baca9347219871920bab5ad020"
              },
              {
                "reference": "Consent/cf340877910947f28f9f75f526f5d64d"
              },
              {
                "reference": "Consent/1fe32039546a4650adc9b62a6c1b792f"
              },
              {
                "reference": "Consent/d4cc0942c13f4e30b4e849548cc305ef"
              },
              {
                "reference": "Consent/e1a9368d61a94e31af638cb107a57d12"
              },
              {
                "reference": "Consent/c736061d985b4672a270ac696c013550"
              },
              {
                "reference": "Consent/e24bb7acd0614f1ba7fbe47cdba73e82"
              },
              {
                "reference": "Consent/a3e077a8bbbb4f7a8a7ddfb529e34746"
              },
              {
                "reference": "Consent/86542e7bb5e64c0ebaedf8deebbad614"
              },
              {
                "reference": "Consent/66731cf02123450a91bfff5c523273a0"
              },
              {
                "reference": "Consent/9aa8afcadf06490a906e61b23e3c3b98"
              }
            ]
          }
        ]
      }
    },
    {
      "resource": {
        "resourceType": "Patient",
        "id": "5bac5cba396a45d0b8de9e441a3209ef",
        "meta": {
          "profile": [
            "http://uk-koeln.de/fhir/StructureDefinition/Patient/nNGM/patient"
          ]
        },
        "identifier": [
          {
            "system": "http://uk-koeln.de/fhir/sid/nNGM/patient-pseudonym",
            "value": "031858"
          }
        ],
        "name": [
          {
            "use": "official",
            "family": "Müller",
            "given": [
              "Magdala"
            ]
          }
        ],
        "gender": "female",
        "birthDate": "1972-05-18",
        "address": [
          {
            "line": [
              "Nordstraße 34"
            ],
            "_line": [
              {
                "extension": [
                  {
                    "url": "http://hl7.org/fhir/StructureDefinition/iso21090-ADXP-streetName",
                    "valueString": "Nordstraße"
                  },
                  {
                    "url": "http://hl7.org/fhir/StructureDefinition/iso21090-ADXP-houseNumber",
                    "valueString": "34"
                  }
                ]
              }
            ],
            "city": "Stuttgart",
            "postalCode": "93478"
          }
        ]
      }
    },
    {
      "resource": {
        "resourceType": "Organization",
        "id": "16e9a1beaeb649428c49b64bfde2b5b9",
        "meta": {
          "profile": [
            "http://uk-koeln.de/fhir/StructureDefinition/Organisation/nNGM"
          ]
        },
        "identifier": [
          {
            "type": {
              "coding": [
                {
                  "system": "http://uk-koeln.de/fhir/CodeSystem/nNGM/identifier-type",
                  "code": "organization"
                }
              ],
              "text": "test"
            },
            "system": "http://uk-koeln.de/fhir/sid/nNGM/organization",
            "value": "1000"
          }
        ],
        "type": [
          {
            "coding": [
              {
                "system": "http://snomed.info/sct",
                "code": "261074009"
              }
            ]
          },
          {
            "coding": [
              {
                "system": "http://snomed.info/sct",
                "code": "285201006"
              }
            ]
          }
        ],
        "name": "nNGM-Präsentationszentrum",
        "telecom": [
          {
            "system": "email",
            "value": "support@medicalsyn.com",
            "use": "work"
          }
        ],
        "address": [
          {
            "type": "both",
            "line": [
              "Bertolt-Brecht-Allee 24"
            ],
            "_line": [
              {
                "extension": [
                  {
                    "url": "http://hl7.org/fhir/StructureDefinition/iso21090-ADXP-streetName",
                    "valueString": "Bertolt-Brecht-Allee"
                  },
                  {
                    "url": "http://hl7.org/fhir/StructureDefinition/iso21090-ADXP-houseNumber",
                    "valueString": "24"
                  }
                ]
              }
            ],
            "city": "Dresden",
            "postalCode": "01309",
            "country": "Germany"
          }
        ]
      }
    },
    {
      "resource": {
        "resourceType": "Consent",
        "id": "c622c46d4d5e41cc82f73297ab31a99f",
        "meta": {
          "profile": [
            "http://uk-koeln.de/fhir/StructureDefinition/nNGM/Consent"
          ]
        },
        "status": "draft",
        "scope": {
          "coding": [
            {
              "system": "http://terminology.hl7.org/CodeSystem/consentscope",
              "code": "patient-privacy"
            }
          ]
        },
        "category": [
          {
            "coding": [
              {
                "system": "http://loinc.org",
                "code": "59284-0"
              }
            ]
          }
        ],
        "patient": {
          "reference": "Patient/5bac5cba396a45d0b8de9e441a3209ef",
          "identifier": {
            "system": "http://uk-koeln.de/fhir/sid/nNGM/patient-pseudonym",
            "value": "031858"
          }
        },
        "dateTime": "2022-07-19T00:00:00+02:00",
        "policyRule": {
          "coding": [
            {
              "system": "http://uk-koeln.de/fhir/CodeSystem/nNGM/nngm-consent-policy",
              "code": "1a"
            }
          ]
        },
        "provision": {
          "type": "permit"
        }
      }
    },
    {
      "resource": {
        "resourceType": "Consent",
        "id": "9e814ef089064f0eb9a96f4754eb6a26",
        "meta": {
          "profile": [
            "http://uk-koeln.de/fhir/StructureDefinition/nNGM/Consent"
          ]
        },
        "status": "draft",
        "scope": {
          "coding": [
            {
              "system": "http://terminology.hl7.org/CodeSystem/consentscope",
              "code": "patient-privacy"
            }
          ]
        },
        "category": [
          {
            "coding": [
              {
                "system": "http://loinc.org",
                "code": "59284-0"
              }
            ]
          }
        ],
        "patient": {
          "reference": "Patient/5bac5cba396a45d0b8de9e441a3209ef",
          "identifier": {
            "system": "http://uk-koeln.de/fhir/sid/nNGM/patient-pseudonym",
            "value": "031858"
          }
        },
        "dateTime": "2022-07-19T00:00:00+02:00",
        "policyRule": {
          "coding": [
            {
              "system": "http://uk-koeln.de/fhir/CodeSystem/nNGM/nngm-consent-policy",
              "code": "1b"
            }
          ]
        },
        "provision": {
          "type": "permit"
        }
      }
    },
    {
      "resource": {
        "resourceType": "Consent",
        "id": "fbfb1074555e42cb8356aac3c676d40e",
        "meta": {
          "profile": [
            "http://uk-koeln.de/fhir/StructureDefinition/nNGM/Consent"
          ]
        },
        "status": "draft",
        "scope": {
          "coding": [
            {
              "system": "http://terminology.hl7.org/CodeSystem/consentscope",
              "code": "patient-privacy"
            }
          ]
        },
        "category": [
          {
            "coding": [
              {
                "system": "http://loinc.org",
                "code": "59284-0"
              }
            ]
          }
        ],
        "patient": {
          "reference": "Patient/5bac5cba396a45d0b8de9e441a3209ef",
          "identifier": {
            "system": "http://uk-koeln.de/fhir/sid/nNGM/patient-pseudonym",
            "value": "031858"
          }
        },
        "dateTime": "2022-07-19T00:00:00+02:00",
        "policyRule": {
          "coding": [
            {
              "system": "http://uk-koeln.de/fhir/CodeSystem/nNGM/nngm-consent-policy",
              "code": "2"
            }
          ]
        },
        "provision": {
          "type": "permit"
        }
      }
    },
    {
      "resource": {
        "resourceType": "Consent",
        "id": "e1a9368d61a94e31af638cb107a57d12",
        "meta": {
          "profile": [
            "http://uk-koeln.de/fhir/StructureDefinition/nNGM/Consent"
          ]
        },
        "status": "draft",
        "scope": {
          "coding": [
            {
              "system": "http://terminology.hl7.org/CodeSystem/consentscope",
              "code": "patient-privacy"
            }
          ]
        },
        "category": [
          {
            "coding": [
              {
                "system": "http://loinc.org",
                "code": "59284-0"
              }
            ]
          }
        ],
        "patient": {
          "reference": "Patient/5bac5cba396a45d0b8de9e441a3209ef",
          "identifier": {
            "system": "http://uk-koeln.de/fhir/sid/nNGM/patient-pseudonym",
            "value": "031858"
          }
        },
        "dateTime": "2022-07-19T00:00:00+02:00",
        "policyRule": {
          "coding": [
            {
              "system": "http://uk-koeln.de/fhir/CodeSystem/nNGM/nngm-consent-policy",
              "code": "TE"
            }
          ]
        },
        "provision": {
          "type": "permit"
        }
      }
    },
    {
      "resource": {
        "resourceType": "Consent",
        "id": "3b32d14b89684cd59d7dbac7b452ee58",
        "meta": {
          "profile": [
            "http://uk-koeln.de/fhir/StructureDefinition/nNGM/Consent"
          ]
        },
        "status": "draft",
        "scope": {
          "coding": [
            {
              "system": "http://terminology.hl7.org/CodeSystem/consentscope",
              "code": "patient-privacy"
            }
          ]
        },
        "category": [
          {
            "coding": [
              {
                "system": "http://loinc.org",
                "code": "59284-0"
              }
            ]
          }
        ],
        "patient": {
          "reference": "Patient/5bac5cba396a45d0b8de9e441a3209ef",
          "identifier": {
            "system": "http://uk-koeln.de/fhir/sid/nNGM/patient-pseudonym",
            "value": "031858"
          }
        },
        "dateTime": "2022-07-19T00:00:00+02:00",
        "policyRule": {
          "coding": [
            {
              "system": "http://uk-koeln.de/fhir/CodeSystem/nNGM/nngm-consent-policy",
              "code": "DS"
            }
          ]
        },
        "provision": {
          "type": "permit"
        }
      }
    },
    {
      "resource": {
        "resourceType": "Consent",
        "id": "1fe32039546a4650adc9b62a6c1b792f",
        "meta": {
          "profile": [
            "http://uk-koeln.de/fhir/StructureDefinition/nNGM/Consent"
          ]
        },
        "status": "draft",
        "scope": {
          "coding": [
            {
              "system": "http://terminology.hl7.org/CodeSystem/consentscope",
              "code": "patient-privacy"
            }
          ]
        },
        "category": [
          {
            "coding": [
              {
                "system": "http://loinc.org",
                "code": "59284-0"
              }
            ]
          }
        ],
        "patient": {
          "reference": "Patient/5bac5cba396a45d0b8de9e441a3209ef",
          "identifier": {
            "system": "http://uk-koeln.de/fhir/sid/nNGM/patient-pseudonym",
            "value": "031858"
          }
        },
        "dateTime": "2022-07-19T00:00:00+02:00",
        "policyRule": {
          "coding": [
            {
              "system": "http://uk-koeln.de/fhir/CodeSystem/nNGM/nngm-consent-policy",
              "code": "MD"
            }
          ]
        },
        "provision": {
          "type": "permit"
        }
      }
    },
    {
      "resource": {
        "resourceType": "Consent",
        "id": "d4cc0942c13f4e30b4e849548cc305ef",
        "meta": {
          "profile": [
            "http://uk-koeln.de/fhir/StructureDefinition/nNGM/Consent"
          ]
        },
        "status": "draft",
        "scope": {
          "coding": [
            {
              "system": "http://terminology.hl7.org/CodeSystem/consentscope",
              "code": "patient-privacy"
            }
          ]
        },
        "category": [
          {
            "coding": [
              {
                "system": "http://loinc.org",
                "code": "59284-0"
              }
            ]
          }
        ],
        "patient": {
          "reference": "Patient/5bac5cba396a45d0b8de9e441a3209ef",
          "identifier": {
            "system": "http://uk-koeln.de/fhir/sid/nNGM/patient-pseudonym",
            "value": "031858"
          }
        },
        "dateTime": "2022-07-19T00:00:00+02:00",
        "policyRule": {
          "coding": [
            {
              "system": "http://uk-koeln.de/fhir/CodeSystem/nNGM/nngm-consent-policy",
              "code": "ST"
            }
          ]
        },
        "provision": {
          "type": "permit"
        }
      }
    },
    {
      "resource": {
        "resourceType": "Consent",
        "id": "86542e7bb5e64c0ebaedf8deebbad614",
        "meta": {
          "profile": [
            "http://uk-koeln.de/fhir/StructureDefinition/nNGM/Consent"
          ]
        },
        "status": "draft",
        "scope": {
          "coding": [
            {
              "system": "http://terminology.hl7.org/CodeSystem/consentscope",
              "code": "patient-privacy"
            }
          ]
        },
        "category": [
          {
            "coding": [
              {
                "system": "http://loinc.org",
                "code": "59284-0"
              }
            ]
          }
        ],
        "patient": {
          "reference": "Patient/5bac5cba396a45d0b8de9e441a3209ef",
          "identifier": {
            "system": "http://uk-koeln.de/fhir/sid/nNGM/patient-pseudonym",
            "value": "031858"
          }
        },
        "dateTime": "2022-07-19T00:00:00+02:00",
        "policyRule": {
          "coding": [
            {
              "system": "http://uk-koeln.de/fhir/CodeSystem/nNGM/nngm-consent-policy",
              "code": "WPI"
            }
          ]
        },
        "provision": {
          "type": "permit"
        }
      }
    },
    {
      "resource": {
        "resourceType": "Consent",
        "id": "a3e077a8bbbb4f7a8a7ddfb529e34746",
        "meta": {
          "profile": [
            "http://uk-koeln.de/fhir/StructureDefinition/nNGM/Consent"
          ]
        },
        "status": "draft",
        "scope": {
          "coding": [
            {
              "system": "http://terminology.hl7.org/CodeSystem/consentscope",
              "code": "patient-privacy"
            }
          ]
        },
        "category": [
          {
            "coding": [
              {
                "system": "http://loinc.org",
                "code": "59284-0"
              }
            ]
          }
        ],
        "patient": {
          "reference": "Patient/5bac5cba396a45d0b8de9e441a3209ef",
          "identifier": {
            "system": "http://uk-koeln.de/fhir/sid/nNGM/patient-pseudonym",
            "value": "031858"
          }
        },
        "dateTime": "2022-07-19T00:00:00+02:00",
        "policyRule": {
          "coding": [
            {
              "system": "http://uk-koeln.de/fhir/CodeSystem/nNGM/nngm-consent-policy",
              "code": "WP"
            }
          ]
        },
        "provision": {
          "type": "permit"
        }
      }
    },
    {
      "resource": {
        "resourceType": "Consent",
        "id": "c736061d985b4672a270ac696c013550",
        "meta": {
          "profile": [
            "http://uk-koeln.de/fhir/StructureDefinition/nNGM/Consent"
          ]
        },
        "status": "draft",
        "scope": {
          "coding": [
            {
              "system": "http://terminology.hl7.org/CodeSystem/consentscope",
              "code": "patient-privacy"
            }
          ]
        },
        "category": [
          {
            "coding": [
              {
                "system": "http://loinc.org",
                "code": "59284-0"
              }
            ]
          }
        ],
        "patient": {
          "reference": "Patient/5bac5cba396a45d0b8de9e441a3209ef",
          "identifier": {
            "system": "http://uk-koeln.de/fhir/sid/nNGM/patient-pseudonym",
            "value": "031858"
          }
        },
        "dateTime": "2022-07-19T00:00:00+02:00",
        "policyRule": {
          "coding": [
            {
              "system": "http://uk-koeln.de/fhir/CodeSystem/nNGM/nngm-consent-policy",
              "code": "WD"
            }
          ]
        },
        "provision": {
          "type": "permit"
        }
      }
    },
    {
      "resource": {
        "resourceType": "Consent",
        "id": "9aa8afcadf06490a906e61b23e3c3b98",
        "meta": {
          "profile": [
            "http://uk-koeln.de/fhir/StructureDefinition/nNGM/Consent"
          ]
        },
        "status": "draft",
        "scope": {
          "coding": [
            {
              "system": "http://terminology.hl7.org/CodeSystem/consentscope",
              "code": "patient-privacy"
            }
          ]
        },
        "category": [
          {
            "coding": [
              {
                "system": "http://loinc.org",
                "code": "59284-0"
              }
            ]
          }
        ],
        "patient": {
          "reference": "Patient/5bac5cba396a45d0b8de9e441a3209ef",
          "identifier": {
            "system": "http://uk-koeln.de/fhir/sid/nNGM/patient-pseudonym",
            "value": "031858"
          }
        },
        "dateTime": "2022-07-19T00:00:00+02:00",
        "policyRule": {
          "coding": [
            {
              "system": "http://uk-koeln.de/fhir/CodeSystem/nNGM/nngm-consent-policy",
              "code": "WR"
            }
          ]
        },
        "provision": {
          "type": "permit"
        }
      }
    },
    {
      "resource": {
        "resourceType": "Consent",
        "id": "66731cf02123450a91bfff5c523273a0",
        "meta": {
          "profile": [
            "http://uk-koeln.de/fhir/StructureDefinition/nNGM/Consent"
          ]
        },
        "status": "draft",
        "scope": {
          "coding": [
            {
              "system": "http://terminology.hl7.org/CodeSystem/consentscope",
              "code": "patient-privacy"
            }
          ]
        },
        "category": [
          {
            "coding": [
              {
                "system": "http://loinc.org",
                "code": "59284-0"
              }
            ]
          }
        ],
        "patient": {
          "reference": "Patient/5bac5cba396a45d0b8de9e441a3209ef",
          "identifier": {
            "system": "http://uk-koeln.de/fhir/sid/nNGM/patient-pseudonym",
            "value": "031858"
          }
        },
        "dateTime": "2022-07-19T00:00:00+02:00",
        "policyRule": {
          "coding": [
            {
              "system": "http://uk-koeln.de/fhir/CodeSystem/nNGM/nngm-consent-policy",
              "code": "WPK"
            }
          ]
        },
        "provision": {
          "type": "permit"
        }
      }
    },
    {
      "resource": {
        "resourceType": "Consent",
        "id": "e24bb7acd0614f1ba7fbe47cdba73e82",
        "meta": {
          "profile": [
            "http://uk-koeln.de/fhir/StructureDefinition/nNGM/Consent"
          ]
        },
        "status": "draft",
        "scope": {
          "coding": [
            {
              "system": "http://terminology.hl7.org/CodeSystem/consentscope",
              "code": "patient-privacy"
            }
          ]
        },
        "category": [
          {
            "coding": [
              {
                "system": "http://loinc.org",
                "code": "59284-0"
              }
            ]
          }
        ],
        "patient": {
          "reference": "Patient/5bac5cba396a45d0b8de9e441a3209ef",
          "identifier": {
            "system": "http://uk-koeln.de/fhir/sid/nNGM/patient-pseudonym",
            "value": "031858"
          }
        },
        "dateTime": "2022-07-19T00:00:00+02:00",
        "policyRule": {
          "coding": [
            {
              "system": "http://uk-koeln.de/fhir/CodeSystem/nNGM/nngm-consent-policy",
              "code": "WK"
            }
          ]
        },
        "provision": {
          "type": "permit"
        }
      }
    },
    {
      "resource": {
        "resourceType": "Consent",
        "id": "cf340877910947f28f9f75f526f5d64d",
        "meta": {
          "profile": [
            "http://uk-koeln.de/fhir/StructureDefinition/nNGM/Consent"
          ]
        },
        "status": "draft",
        "scope": {
          "coding": [
            {
              "system": "http://terminology.hl7.org/CodeSystem/consentscope",
              "code": "patient-privacy"
            }
          ]
        },
        "category": [
          {
            "coding": [
              {
                "system": "http://loinc.org",
                "code": "59284-0"
              }
            ]
          }
        ],
        "patient": {
          "reference": "Patient/5bac5cba396a45d0b8de9e441a3209ef",
          "identifier": {
            "system": "http://uk-koeln.de/fhir/sid/nNGM/patient-pseudonym",
            "value": "031858"
          }
        },
        "dateTime": "2022-07-19T00:00:00+02:00",
        "policyRule": {
          "coding": [
            {
              "system": "http://uk-koeln.de/fhir/CodeSystem/nNGM/nngm-consent-policy",
              "code": "KW"
            }
          ]
        },
        "provision": {
          "type": "permit"
        }
      }
    },
    {
      "resource": {
        "resourceType": "Consent",
        "id": "ba9880baca9347219871920bab5ad020",
        "meta": {
          "profile": [
            "http://uk-koeln.de/fhir/StructureDefinition/nNGM/Consent"
          ]
        },
        "status": "draft",
        "scope": {
          "coding": [
            {
              "system": "http://terminology.hl7.org/CodeSystem/consentscope",
              "code": "patient-privacy"
            }
          ]
        },
        "category": [
          {
            "coding": [
              {
                "system": "http://loinc.org",
                "code": "59284-0"
              }
            ]
          }
        ],
        "patient": {
          "reference": "Patient/5bac5cba396a45d0b8de9e441a3209ef",
          "identifier": {
            "system": "http://uk-koeln.de/fhir/sid/nNGM/patient-pseudonym",
            "value": "031858"
          }
        },
        "dateTime": "2022-07-19T00:00:00+02:00",
        "policyRule": {
          "coding": [
            {
              "system": "http://uk-koeln.de/fhir/CodeSystem/nNGM/nngm-consent-policy",
              "code": "KE"
            }
          ]
        },
        "provision": {
          "type": "permit"
        }
      }
    }
  ]
}