{
  "resourceType": "Bundle",
  "identifier": {
    "system": "http://uk-koeln.de/fhir/sid/bundle-identifier",
    "value": "397deb72c7d54b1c845225fbaeba1d90"
  },
  "type": "document",
  "timestamp": "2022-09-02T15:33:42+02:00",
  "entry": [
    {
      "resource": {
        "resourceType": "Composition",
        "id": "2a06b4ad53ed471892e0ad886ef08355",
        "meta": {
          "profile": [
            "http://uk-koeln.de/fhir/StructureDefinition/nNGM/Composition"
          ]
        },
        "identifier": {
          "system": "http://uk-koeln.de/fhir/sid/nngm-case-no",
          "value": "031858-000"
        },
        "status": "final",
        "type": {
          "coding": [
            {
              "system": "http://loinc.org",
              "code": "11503-0"
            }
          ]
        },
        "subject": {
          "reference": "Patient/5bac5cba396a45d0b8de9e441a3209ef",
          "identifier": {
            "system": "http://uk-koeln.de/fhir/sid/nNGM/patient-pseudonym",
            "value": "031858"
          }
        },
        "date": "2022-09-02T15:26:42+02:00",
        "author": [
          {
            "reference": "Organization/16e9a1beaeb649428c49b64bfde2b5b9"
          }
        ],
        "title": "Composition 2a06b4ad53ed471892e0ad886ef08355",
        "section": [
          {
            "code": {
              "coding": [
                {
                  "system": "http://uk-koeln.de/fhir/CodeSystem/nNGM/CompositionSectionType",
                  "code": "CONSENT"
                }
              ]
            },
            "entry": [
              {
                "reference": "Consent/c622c46d4d5e41cc82f73297ab31a99f"
              },
              {
                "reference": "Consent/9e814ef089064f0eb9a96f4754eb6a26"
              },
              {
                "reference": "Consent/fbfb1074555e42cb8356aac3c676d40e"
              },
              {
                "reference": "Consent/3b32d14b89684cd59d7dbac7b452ee58"
              },
              {
                "reference": "Consent/ba9880baca9347219871920bab5ad020"
              },
              {
                "reference": "Consent/cf340877910947f28f9f75f526f5d64d"
              },
              {
                "reference": "Consent/1fe32039546a4650adc9b62a6c1b792f"
              },
              {
                "reference": "Consent/d4cc0942c13f4e30b4e849548cc305ef"
              },
              {
                "reference": "Consent/e1a9368d61a94e31af638cb107a57d12"
              },
              {
                "reference": "Consent/c736061d985b4672a270ac696c013550"
              },
              {
                "reference": "Consent/e24bb7acd0614f1ba7fbe47cdba73e82"
              },
              {
                "reference": "Consent/a3e077a8bbbb4f7a8a7ddfb529e34746"
              },
              {
                "reference": "Consent/86542e7bb5e64c0ebaedf8deebbad614"
              },
              {
                "reference": "Consent/66731cf02123450a91bfff5c523273a0"
              },
              {
                "reference": "Consent/9aa8afcadf06490a906e61b23e3c3b98"
              }
            ]
          },
          {
            "code": {
              "coding": [
                {
                  "system": "http://uk-koeln.de/fhir/CodeSystem/nNGM/CompositionSectionType",
                  "code": "FIRST_DIAGNOSIS"
                }
              ]
            },
            "entry": [
              {
                "reference": "Condition/c9afe3af2047479eb58f0cc6134948c4"
              }
            ]
          },
          {
            "code": {
              "coding": [
                {
                  "system": "http://uk-koeln.de/fhir/CodeSystem/nNGM/CompositionSectionType",
                  "code": "COVERAGE"
                }
              ]
            },
            "entry": [
              {
                "reference": "Coverage/eb7ac37196714575a0b97f409a922e86"
              }
            ]
          },
          {
            "code": {
              "coding": [
                {
                  "system": "http://uk-koeln.de/fhir/CodeSystem/nNGM/CompositionSectionType",
                  "code": "TOBACCO_SMOKING"
                }
              ]
            },
            "entry": [
              {
                "reference": "Observation/3019151b4ea44b87b62c7720bbfb24d0"
              }
            ]
          },
          {
            "code": {
              "coding": [
                {
                  "system": "http://uk-koeln.de/fhir/CodeSystem/nNGM/CompositionSectionType",
                  "code": "VITAL_STATES"
                }
              ]
            },
            "entry": [
              {
                "reference": "Observation/3019151b4ea44b87b62c7720bbfb24d0"
              }
            ]
          },
          {
            "code": {
              "coding": [
                {
                  "system": "http://uk-koeln.de/fhir/CodeSystem/nNGM/CompositionSectionType",
                  "code": "ECOGS"
                }
              ]
            },
            "entry": [
              {
                "reference": "Observation/76397fea55e44c088d3eed17a5d4974f"
              }
            ]
          },
          {
            "code": {
              "coding": [
                {
                  "system": "http://uk-koeln.de/fhir/CodeSystem/nNGM/CompositionSectionType",
                  "code": "DIAGNOSTICS_REQUEST"
                }
              ]
            },
            "entry": [
              {
                "reference": "ServiceRequest/467e430ac04740fab594f9f9713cc195"
              }
            ]
          },
          {
            "code": {
              "coding": [
                {
                  "system": "http://uk-koeln.de/fhir/CodeSystem/nNGM/CompositionSectionType",
                  "code": "TKI_RESISTANCES"
                }
              ]
            },
            "entry": [
              {
                "reference": "Observation/c5015be8dcc244d784e1d973a66910fc"
              }
            ]
          },
          {
            "code": {
              "coding": [
                {
                  "system": "http://uk-koeln.de/fhir/CodeSystem/nNGM/CompositionSectionType",
                  "code": "TUMOR_PROGRESS_RECURRENCES"
                }
              ]
            },
            "entry": [
              {
                "reference": "Observation/0205cb30b0974deaa706f93da503df92"
              }
            ]
          },
          {
            "code": {
              "coding": [
                {
                  "system": "http://uk-koeln.de/fhir/CodeSystem/nNGM/CompositionSectionType",
                  "code": "TUMOR_HISTOLOGIES"
                }
              ]
            },
            "entry": [
              {
                "reference": "Observation/8f534eaa51724777ae179dff36f961ab"
              }
            ]
          },
          {
            "code": {
              "coding": [
                {
                  "system": "http://uk-koeln.de/fhir/CodeSystem/nNGM/CompositionSectionType",
                  "code": "TUMOR_STAGES"
                }
              ]
            },
            "entry": [
              {
                "reference": "Observation/3950eea68c14453cb86897a75ef2aa50"
              }
            ]
          }
        ]
      }
    },
    {
      "resource": {
        "resourceType": "Patient",
        "id": "5bac5cba396a45d0b8de9e441a3209ef",
        "meta": {
          "profile": [
            "http://uk-koeln.de/fhir/StructureDefinition/Patient/nNGM/patient"
          ]
        },
        "identifier": [
          {
            "system": "http://uk-koeln.de/fhir/sid/nNGM/patient-pseudonym",
            "value": "031858"
          }
        ],
        "name": [
          {
            "use": "official",
            "family": "Müller",
            "given": [
              "Magdala"
            ]
          }
        ],
        "gender": "female",
        "birthDate": "1972-05-18",
        "address": [
          {
            "line": [
              "Nordstraße 34"
            ],
            "_line": [
              {
                "extension": [
                  {
                    "url": "http://hl7.org/fhir/StructureDefinition/iso21090-ADXP-streetName",
                    "valueString": "Nordstraße"
                  },
                  {
                    "url": "http://hl7.org/fhir/StructureDefinition/iso21090-ADXP-houseNumber",
                    "valueString": "34"
                  }
                ]
              }
            ],
            "city": "Stuttgart",
            "postalCode": "93478"
          }
        ]
      }
    },
    {
      "resource": {
        "resourceType": "Organization",
        "id": "16e9a1beaeb649428c49b64bfde2b5b9",
        "meta": {
          "profile": [
            "http://uk-koeln.de/fhir/StructureDefinition/Organisation/nNGM"
          ]
        },
        "identifier": [
          {
            "type": {
              "coding": [
                {
                  "system": "http://uk-koeln.de/fhir/CodeSystem/nNGM/identifier-type",
                  "code": "ORG"
                }
              ]
            },
            "system": "http://uk-koeln.de/fhir/sid/nNGM/organization",
            "value": "1000"
          }
        ],
        "type": [
          {
            "coding": [
              {
                "system": "http://snomed.info/sct",
                "code": "261074009"
              }
            ]
          },
          {
            "coding": [
              {
                "system": "http://snomed.info/sct",
                "code": "285201006"
              }
            ]
          }
        ],
        "name": "nNGM-Präsentationszentrum",
        "telecom": [
          {
            "system": "email",
            "value": "support@medicalsyn.com",
            "use": "work"
          }
        ],
        "address": [
          {
            "type": "both",
            "line": [
              "Bertolt-Brecht-Allee 24"
            ],
            "_line": [
              {
                "extension": [
                  {
                    "url": "http://hl7.org/fhir/StructureDefinition/iso21090-ADXP-streetName",
                    "valueString": "Bertolt-Brecht-Allee"
                  },
                  {
                    "url": "http://hl7.org/fhir/StructureDefinition/iso21090-ADXP-houseNumber",
                    "valueString": "24"
                  }
                ]
              }
            ],
            "city": "Dresden",
            "postalCode": "01309",
            "country": "Germany"
          }
        ]
      }
    },
    {
      "resource": {
        "resourceType": "Consent",
        "id": "c622c46d4d5e41cc82f73297ab31a99f",
        "meta": {
          "profile": [
            "http://uk-koeln.de/fhir/StructureDefinition/nNGM/Consent"
          ]
        },
        "status": "draft",
        "scope": {
          "coding": [
            {
              "system": "http://terminology.hl7.org/CodeSystem/consentscope",
              "code": "patient-privacy"
            }
          ]
        },
        "category": [
          {
            "coding": [
              {
                "system": "http://loinc.org",
                "code": "59284-0"
              }
            ]
          }
        ],
        "patient": {
          "reference": "Patient/5bac5cba396a45d0b8de9e441a3209ef",
          "identifier": {
            "system": "http://uk-koeln.de/fhir/sid/nNGM/patient-pseudonym",
            "value": "031858"
          }
        },
        "dateTime": "2022-07-19T00:00:00+02:00",
        "policyRule": {
          "coding": [
            {
              "system": "http://uk-koeln.de/fhir/CodeSystem/nNGM/nngm-consent-policy",
              "code": "1a"
            }
          ]
        },
        "provision": {
          "type": "permit"
        }
      }
    },
    {
      "resource": {
        "resourceType": "Consent",
        "id": "9e814ef089064f0eb9a96f4754eb6a26",
        "meta": {
          "profile": [
            "http://uk-koeln.de/fhir/StructureDefinition/nNGM/Consent"
          ]
        },
        "status": "draft",
        "scope": {
          "coding": [
            {
              "system": "http://terminology.hl7.org/CodeSystem/consentscope",
              "code": "patient-privacy"
            }
          ]
        },
        "category": [
          {
            "coding": [
              {
                "system": "http://loinc.org",
                "code": "59284-0"
              }
            ]
          }
        ],
        "patient": {
          "reference": "Patient/5bac5cba396a45d0b8de9e441a3209ef",
          "identifier": {
            "system": "http://uk-koeln.de/fhir/sid/nNGM/patient-pseudonym",
            "value": "031858"
          }
        },
        "dateTime": "2022-07-19T00:00:00+02:00",
        "policyRule": {
          "coding": [
            {
              "system": "http://uk-koeln.de/fhir/CodeSystem/nNGM/nngm-consent-policy",
              "code": "1b"
            }
          ]
        },
        "provision": {
          "type": "permit"
        }
      }
    },
    {
      "resource": {
        "resourceType": "Consent",
        "id": "fbfb1074555e42cb8356aac3c676d40e",
        "meta": {
          "profile": [
            "http://uk-koeln.de/fhir/StructureDefinition/nNGM/Consent"
          ]
        },
        "status": "draft",
        "scope": {
          "coding": [
            {
              "system": "http://terminology.hl7.org/CodeSystem/consentscope",
              "code": "patient-privacy"
            }
          ]
        },
        "category": [
          {
            "coding": [
              {
                "system": "http://loinc.org",
                "code": "59284-0"
              }
            ]
          }
        ],
        "patient": {
          "reference": "Patient/5bac5cba396a45d0b8de9e441a3209ef",
          "identifier": {
            "system": "http://uk-koeln.de/fhir/sid/nNGM/patient-pseudonym",
            "value": "031858"
          }
        },
        "dateTime": "2022-07-19T00:00:00+02:00",
        "policyRule": {
          "coding": [
            {
              "system": "http://uk-koeln.de/fhir/CodeSystem/nNGM/nngm-consent-policy",
              "code": "2"
            }
          ]
        },
        "provision": {
          "type": "permit"
        }
      }
    },
    {
      "resource": {
        "resourceType": "Consent",
        "id": "e1a9368d61a94e31af638cb107a57d12",
        "meta": {
          "profile": [
            "http://uk-koeln.de/fhir/StructureDefinition/nNGM/Consent"
          ]
        },
        "status": "draft",
        "scope": {
          "coding": [
            {
              "system": "http://terminology.hl7.org/CodeSystem/consentscope",
              "code": "patient-privacy"
            }
          ]
        },
        "category": [
          {
            "coding": [
              {
                "system": "http://loinc.org",
                "code": "59284-0"
              }
            ]
          }
        ],
        "patient": {
          "reference": "Patient/5bac5cba396a45d0b8de9e441a3209ef",
          "identifier": {
            "system": "http://uk-koeln.de/fhir/sid/nNGM/patient-pseudonym",
            "value": "031858"
          }
        },
        "dateTime": "2022-07-19T00:00:00+02:00",
        "policyRule": {
          "coding": [
            {
              "system": "http://uk-koeln.de/fhir/CodeSystem/nNGM/nngm-consent-policy",
              "code": "TE"
            }
          ]
        },
        "provision": {
          "type": "permit"
        }
      }
    },
    {
      "resource": {
        "resourceType": "Consent",
        "id": "3b32d14b89684cd59d7dbac7b452ee58",
        "meta": {
          "profile": [
            "http://uk-koeln.de/fhir/StructureDefinition/nNGM/Consent"
          ]
        },
        "status": "draft",
        "scope": {
          "coding": [
            {
              "system": "http://terminology.hl7.org/CodeSystem/consentscope",
              "code": "patient-privacy"
            }
          ]
        },
        "category": [
          {
            "coding": [
              {
                "system": "http://loinc.org",
                "code": "59284-0"
              }
            ]
          }
        ],
        "patient": {
          "reference": "Patient/5bac5cba396a45d0b8de9e441a3209ef",
          "identifier": {
            "system": "http://uk-koeln.de/fhir/sid/nNGM/patient-pseudonym",
            "value": "031858"
          }
        },
        "dateTime": "2022-07-19T00:00:00+02:00",
        "policyRule": {
          "coding": [
            {
              "system": "http://uk-koeln.de/fhir/CodeSystem/nNGM/nngm-consent-policy",
              "code": "DS"
            }
          ]
        },
        "provision": {
          "type": "permit"
        }
      }
    },
    {
      "resource": {
        "resourceType": "Consent",
        "id": "1fe32039546a4650adc9b62a6c1b792f",
        "meta": {
          "profile": [
            "http://uk-koeln.de/fhir/StructureDefinition/nNGM/Consent"
          ]
        },
        "status": "draft",
        "scope": {
          "coding": [
            {
              "system": "http://terminology.hl7.org/CodeSystem/consentscope",
              "code": "patient-privacy"
            }
          ]
        },
        "category": [
          {
            "coding": [
              {
                "system": "http://loinc.org",
                "code": "59284-0"
              }
            ]
          }
        ],
        "patient": {
          "reference": "Patient/5bac5cba396a45d0b8de9e441a3209ef",
          "identifier": {
            "system": "http://uk-koeln.de/fhir/sid/nNGM/patient-pseudonym",
            "value": "031858"
          }
        },
        "dateTime": "2022-07-19T00:00:00+02:00",
        "policyRule": {
          "coding": [
            {
              "system": "http://uk-koeln.de/fhir/CodeSystem/nNGM/nngm-consent-policy",
              "code": "MD"
            }
          ]
        },
        "provision": {
          "type": "permit"
        }
      }
    },
    {
      "resource": {
        "resourceType": "Consent",
        "id": "d4cc0942c13f4e30b4e849548cc305ef",
        "meta": {
          "profile": [
            "http://uk-koeln.de/fhir/StructureDefinition/nNGM/Consent"
          ]
        },
        "status": "draft",
        "scope": {
          "coding": [
            {
              "system": "http://terminology.hl7.org/CodeSystem/consentscope",
              "code": "patient-privacy"
            }
          ]
        },
        "category": [
          {
            "coding": [
              {
                "system": "http://loinc.org",
                "code": "59284-0"
              }
            ]
          }
        ],
        "patient": {
          "reference": "Patient/5bac5cba396a45d0b8de9e441a3209ef",
          "identifier": {
            "system": "http://uk-koeln.de/fhir/sid/nNGM/patient-pseudonym",
            "value": "031858"
          }
        },
        "dateTime": "2022-07-19T00:00:00+02:00",
        "policyRule": {
          "coding": [
            {
              "system": "http://uk-koeln.de/fhir/CodeSystem/nNGM/nngm-consent-policy",
              "code": "ST"
            }
          ]
        },
        "provision": {
          "type": "permit"
        }
      }
    },
    {
      "resource": {
        "resourceType": "Consent",
        "id": "86542e7bb5e64c0ebaedf8deebbad614",
        "meta": {
          "profile": [
            "http://uk-koeln.de/fhir/StructureDefinition/nNGM/Consent"
          ]
        },
        "status": "draft",
        "scope": {
          "coding": [
            {
              "system": "http://terminology.hl7.org/CodeSystem/consentscope",
              "code": "patient-privacy"
            }
          ]
        },
        "category": [
          {
            "coding": [
              {
                "system": "http://loinc.org",
                "code": "59284-0"
              }
            ]
          }
        ],
        "patient": {
          "reference": "Patient/5bac5cba396a45d0b8de9e441a3209ef",
          "identifier": {
            "system": "http://uk-koeln.de/fhir/sid/nNGM/patient-pseudonym",
            "value": "031858"
          }
        },
        "dateTime": "2022-07-19T00:00:00+02:00",
        "policyRule": {
          "coding": [
            {
              "system": "http://uk-koeln.de/fhir/CodeSystem/nNGM/nngm-consent-policy",
              "code": "WPI"
            }
          ]
        },
        "provision": {
          "type": "permit"
        }
      }
    },
    {
      "resource": {
        "resourceType": "Consent",
        "id": "a3e077a8bbbb4f7a8a7ddfb529e34746",
        "meta": {
          "profile": [
            "http://uk-koeln.de/fhir/StructureDefinition/nNGM/Consent"
          ]
        },
        "status": "draft",
        "scope": {
          "coding": [
            {
              "system": "http://terminology.hl7.org/CodeSystem/consentscope",
              "code": "patient-privacy"
            }
          ]
        },
        "category": [
          {
            "coding": [
              {
                "system": "http://loinc.org",
                "code": "59284-0"
              }
            ]
          }
        ],
        "patient": {
          "reference": "Patient/5bac5cba396a45d0b8de9e441a3209ef",
          "identifier": {
            "system": "http://uk-koeln.de/fhir/sid/nNGM/patient-pseudonym",
            "value": "031858"
          }
        },
        "dateTime": "2022-07-19T00:00:00+02:00",
        "policyRule": {
          "coding": [
            {
              "system": "http://uk-koeln.de/fhir/CodeSystem/nNGM/nngm-consent-policy",
              "code": "WP"
            }
          ]
        },
        "provision": {
          "type": "permit"
        }
      }
    },
    {
      "resource": {
        "resourceType": "Consent",
        "id": "c736061d985b4672a270ac696c013550",
        "meta": {
          "profile": [
            "http://uk-koeln.de/fhir/StructureDefinition/nNGM/Consent"
          ]
        },
        "status": "draft",
        "scope": {
          "coding": [
            {
              "system": "http://terminology.hl7.org/CodeSystem/consentscope",
              "code": "patient-privacy"
            }
          ]
        },
        "category": [
          {
            "coding": [
              {
                "system": "http://loinc.org",
                "code": "59284-0"
              }
            ]
          }
        ],
        "patient": {
          "reference": "Patient/5bac5cba396a45d0b8de9e441a3209ef",
          "identifier": {
            "system": "http://uk-koeln.de/fhir/sid/nNGM/patient-pseudonym",
            "value": "031858"
          }
        },
        "dateTime": "2022-07-19T00:00:00+02:00",
        "policyRule": {
          "coding": [
            {
              "system": "http://uk-koeln.de/fhir/CodeSystem/nNGM/nngm-consent-policy",
              "code": "WD"
            }
          ]
        },
        "provision": {
          "type": "permit"
        }
      }
    },
    {
      "resource": {
        "resourceType": "Consent",
        "id": "9aa8afcadf06490a906e61b23e3c3b98",
        "meta": {
          "profile": [
            "http://uk-koeln.de/fhir/StructureDefinition/nNGM/Consent"
          ]
        },
        "status": "draft",
        "scope": {
          "coding": [
            {
              "system": "http://terminology.hl7.org/CodeSystem/consentscope",
              "code": "patient-privacy"
            }
          ]
        },
        "category": [
          {
            "coding": [
              {
                "system": "http://loinc.org",
                "code": "59284-0"
              }
            ]
          }
        ],
        "patient": {
          "reference": "Patient/5bac5cba396a45d0b8de9e441a3209ef",
          "identifier": {
            "system": "http://uk-koeln.de/fhir/sid/nNGM/patient-pseudonym",
            "value": "031858"
          }
        },
        "dateTime": "2022-07-19T00:00:00+02:00",
        "policyRule": {
          "coding": [
            {
              "system": "http://uk-koeln.de/fhir/CodeSystem/nNGM/nngm-consent-policy",
              "code": "WR"
            }
          ]
        },
        "provision": {
          "type": "permit"
        }
      }
    },
    {
      "resource": {
        "resourceType": "Consent",
        "id": "66731cf02123450a91bfff5c523273a0",
        "meta": {
          "profile": [
            "http://uk-koeln.de/fhir/StructureDefinition/nNGM/Consent"
          ]
        },
        "status": "draft",
        "scope": {
          "coding": [
            {
              "system": "http://terminology.hl7.org/CodeSystem/consentscope",
              "code": "patient-privacy"
            }
          ]
        },
        "category": [
          {
            "coding": [
              {
                "system": "http://loinc.org",
                "code": "59284-0"
              }
            ]
          }
        ],
        "patient": {
          "reference": "Patient/5bac5cba396a45d0b8de9e441a3209ef",
          "identifier": {
            "system": "http://uk-koeln.de/fhir/sid/nNGM/patient-pseudonym",
            "value": "031858"
          }
        },
        "dateTime": "2022-07-19T00:00:00+02:00",
        "policyRule": {
          "coding": [
            {
              "system": "http://uk-koeln.de/fhir/CodeSystem/nNGM/nngm-consent-policy",
              "code": "WPK"
            }
          ]
        },
        "provision": {
          "type": "permit"
        }
      }
    },
    {
      "resource": {
        "resourceType": "Consent",
        "id": "e24bb7acd0614f1ba7fbe47cdba73e82",
        "meta": {
          "profile": [
            "http://uk-koeln.de/fhir/StructureDefinition/nNGM/Consent"
          ]
        },
        "status": "draft",
        "scope": {
          "coding": [
            {
              "system": "http://terminology.hl7.org/CodeSystem/consentscope",
              "code": "patient-privacy"
            }
          ]
        },
        "category": [
          {
            "coding": [
              {
                "system": "http://loinc.org",
                "code": "59284-0"
              }
            ]
          }
        ],
        "patient": {
          "reference": "Patient/5bac5cba396a45d0b8de9e441a3209ef",
          "identifier": {
            "system": "http://uk-koeln.de/fhir/sid/nNGM/patient-pseudonym",
            "value": "031858"
          }
        },
        "dateTime": "2022-07-19T00:00:00+02:00",
        "policyRule": {
          "coding": [
            {
              "system": "http://uk-koeln.de/fhir/CodeSystem/nNGM/nngm-consent-policy",
              "code": "WK"
            }
          ]
        },
        "provision": {
          "type": "permit"
        }
      }
    },
    {
      "resource": {
        "resourceType": "Consent",
        "id": "cf340877910947f28f9f75f526f5d64d",
        "meta": {
          "profile": [
            "http://uk-koeln.de/fhir/StructureDefinition/nNGM/Consent"
          ]
        },
        "status": "draft",
        "scope": {
          "coding": [
            {
              "system": "http://terminology.hl7.org/CodeSystem/consentscope",
              "code": "patient-privacy"
            }
          ]
        },
        "category": [
          {
            "coding": [
              {
                "system": "http://loinc.org",
                "code": "59284-0"
              }
            ]
          }
        ],
        "patient": {
          "reference": "Patient/5bac5cba396a45d0b8de9e441a3209ef",
          "identifier": {
            "system": "http://uk-koeln.de/fhir/sid/nNGM/patient-pseudonym",
            "value": "031858"
          }
        },
        "dateTime": "2022-07-19T00:00:00+02:00",
        "policyRule": {
          "coding": [
            {
              "system": "http://uk-koeln.de/fhir/CodeSystem/nNGM/nngm-consent-policy",
              "code": "KW"
            }
          ]
        },
        "provision": {
          "type": "permit"
        }
      }
    },
    {
      "resource": {
        "resourceType": "Consent",
        "id": "ba9880baca9347219871920bab5ad020",
        "meta": {
          "profile": [
            "http://uk-koeln.de/fhir/StructureDefinition/nNGM/Consent"
          ]
        },
        "status": "draft",
        "scope": {
          "coding": [
            {
              "system": "http://terminology.hl7.org/CodeSystem/consentscope",
              "code": "patient-privacy"
            }
          ]
        },
        "category": [
          {
            "coding": [
              {
                "system": "http://loinc.org",
                "code": "59284-0"
              }
            ]
          }
        ],
        "patient": {
          "reference": "Patient/5bac5cba396a45d0b8de9e441a3209ef",
          "identifier": {
            "system": "http://uk-koeln.de/fhir/sid/nNGM/patient-pseudonym",
            "value": "031858"
          }
        },
        "dateTime": "2022-07-19T00:00:00+02:00",
        "policyRule": {
          "coding": [
            {
              "system": "http://uk-koeln.de/fhir/CodeSystem/nNGM/nngm-consent-policy",
              "code": "KE"
            }
          ]
        },
        "provision": {
          "type": "permit"
        }
      }
    },
    {
      "resource": {
        "resourceType": "Condition",
        "id": "c9afe3af2047479eb58f0cc6134948c4",
        "meta": {
          "profile": [
            "http://uk-koeln.de/fhir/StructureDefinition/Condition/nNGM/FirstDiagnosis"
          ]
        },
        "code": {
          "coding": [
            {
              "system": "urn:oid:2.16.840.1.113883.6.43.1",
              "code": "8140/3"
            }
          ]
        },
        "bodySite": [
          {
            "coding": [
              {
                "system": "http://terminology.hl7.org/CodeSystem/icd-o-3",
                "code": "C34.0"
              }
            ]
          }
        ],
        "subject": {
          "reference": "Patient/5bac5cba396a45d0b8de9e441a3209ef",
          "identifier": {
            "system": "http://uk-koeln.de/fhir/sid/nNGM/patient-pseudonym",
            "value": "031858"
          }
        },
        "onsetDateTime": "2022-05-05"
      }
    },
    {
      "resource": {
        "resourceType": "Observation",
        "id": "3019151b4ea44b87b62c7720bbfb24d0",
        "meta": {
          "profile": [
            "http://uk-koeln.de/fhir/StructureDefinition/nNGM/Vitalstatus"
          ]
        },
        "status": "final",
        "category": [
          {
            "coding": [
              {
                "system": "http://terminology.hl7.org/CodeSystem/observation-category",
                "code": "survey"
              }
            ]
          }
        ],
        "code": {
          "coding": [
            {
              "system": "http://loinc.org",
              "code": "67162-8"
            }
          ]
        },
        "subject": {
          "reference": "Patient/5bac5cba396a45d0b8de9e441a3209ef",
          "identifier": {
            "system": "http://uk-koeln.de/fhir/sid/nNGM/patient-pseudonym",
            "value": "031858"
          }
        },
        "effectiveDateTime": "2022-07-19",
        "valueCodeableConcept": {
          "coding": [
            {
              "system": "http://uk-koeln.de/fhir/CodeSystem/nNGM/Vitalstatus",
              "code": "L"
            }
          ]
        }
      }
    },
    {
      "resource": {
        "resourceType": "Observation",
        "id": "3019151b4ea44b87b62c7720bbfb24d0",
        "meta": {
          "profile": [
            "http://uk-koeln.de/fhir/StructureDefinition/Observation/nNGM/raucherstatus"
          ]
        },
        "status": "final",
        "category": [
          {
            "coding": [
              {
                "system": "http://terminology.hl7.org/CodeSystem/observation-category",
                "code": "social-history"
              }
            ]
          }
        ],
        "code": {
          "coding": [
            {
              "system": "http://loinc.org",
              "code": "72166-2"
            }
          ]
        },
        "subject": {
          "reference": "Patient/5bac5cba396a45d0b8de9e441a3209ef",
          "identifier": {
            "system": "http://uk-koeln.de/fhir/sid/nNGM/patient-pseudonym",
            "value": "031858"
          }
        },
        "effectiveDateTime": "2022-07-19",
        "valueCodeableConcept": {
          "coding": [
            {
              "system": "http://loinc.org",
              "code": "LA15920-4"
            }
          ]
        },
        "component": [
          {
            "code": {
              "coding": [
                {
                  "system": "http://ncicb.nci.nih.gov/xml/owl/EVS/Thesaurus.owl",
                  "code": "C124908"
                }
              ]
            },
            "valueQuantity": {
              "value": 5,
              "unit": "a",
              "system": "http://unitsofmeasure.org",
              "code": "a"
            }
          },
          {
            "code": {
              "coding": [
                {
                  "system": "http://ncicb.nci.nih.gov/xml/owl/EVS/Thesaurus.owl",
                  "code": "C73993"
                }
              ]
            },
            "valueQuantity": {
              "value": 10,
              "unit": "{PackYears}",
              "system": "http://unitsofmeasure.org",
              "code": "{PackYears}"
            }
          }
        ]
      }
    },
    {
      "resource": {
        "resourceType": "Observation",
        "id": "76397fea55e44c088d3eed17a5d4974f",
        "meta": {
          "profile": [
            "http://uk-koeln.de/fhir/StructureDefinition/Observation/nNGM/ecog"
          ]
        },
        "partOf": [
          {
            "reference": "ServiceRequest/467e430ac04740fab594f9f9713cc195"
          }
        ],
        "status": "final",
        "category": [
          {
            "coding": [
              {
                "system": "http://terminology.hl7.org/CodeSystem/observation-category",
                "code": "survey"
              }
            ]
          }
        ],
        "code": {
          "coding": [
            {
              "system": "http://loinc.org",
              "code": "89247-1"
            }
          ]
        },
        "subject": {
          "reference": "Patient/5bac5cba396a45d0b8de9e441a3209ef",
          "identifier": {
            "system": "http://uk-koeln.de/fhir/sid/nNGM/patient-pseudonym",
            "value": "031858"
          }
        },
        "effectiveDateTime": "2022-07-19",
        "valueCodeableConcept": {
          "coding": [
            {
              "system": "http://loinc.org",
              "code": "LA9625-0"
            }
          ]
        }
      }
    },
    {
      "resource": {
        "resourceType": "Observation",
        "id": "3950eea68c14453cb86897a75ef2aa50",
        "meta": {
          "profile": [
            "http://uk-koeln.de/fhir/StructureDefinition/Observation/nNGM/tumorstadium"
          ]
        },
        "extension": [
          {
            "url": "http://uk-koeln.de/fhir/StructureDefinition/Extension/nNGM/tnm-kurativ-operabel",
            "valueBoolean": false
          },
          {
            "url": "http://uk-koeln.de/fhir/StructureDefinition/Extension/nNGM/tnm-erstdiagnose",
            "valueBoolean": false
          }
        ],
        "status": "final",
        "category": [
          {
            "coding": [
              {
                "system": "http://terminology.hl7.org/CodeSystem/observation-category",
                "code": "survey"
              }
            ]
          }
        ],
        "code": {
          "coding": [
            {
              "system": "http://snomed.info/sct",
              "code": "260879005"
            }
          ]
        },
        "subject": {
          "reference": "Patient/5bac5cba396a45d0b8de9e441a3209ef",
          "identifier": {
            "system": "http://uk-koeln.de/fhir/sid/nNGM/patient-pseudonym",
            "value": "031858"
          }
        },
        "effectiveDateTime": "2022-07-18",
        "valueCodeableConcept": {
          "coding": [
            {
              "system": "urn:oid:2.16.840.1.113883.15.16",
              "code": "IVA"
            }
          ]
        },
        "component": [
          {
            "extension": [
              {
                "url": "http://uk-koeln.de/fhir/StructureDefinition/Extension/nNGM/tnm-cpu-praefix",
                "valueCodeableConcept": {
                  "coding": [
                    {
                      "system": "http://uk-koeln.de/fhir/StructureDefinition/Extension/nNGM/tnm-cpu-praefix",
                      "code": "c"
                    }
                  ]
                }
              },
              {
                "url": "http://uk-koeln.de/fhir/StructureDefinition/Extension/nNGM/tnm-suffix-t",
                "valueCodeableConcept": {
                  "coding": [
                    {
                      "system": "http://uk-koeln.de/fhir/CodeSystem/nNGM/tnm-suffix-t",
                      "code": "is"
                    }
                  ]
                }
              }
            ],
            "code": {
              "coding": [
                {
                  "system": "http://snomed.info/sct",
                  "code": "78873005"
                }
              ]
            },
            "valueCodeableConcept": {
              "coding": [
                {
                  "system": "urn:oid:2.16.840.1.113883.15.16",
                  "code": "T1b"
                }
              ]
            }
          },
          {
            "extension": [
              {
                "url": "http://uk-koeln.de/fhir/StructureDefinition/Extension/nNGM/tnm-cpu-praefix",
                "valueCodeableConcept": {
                  "coding": [
                    {
                      "system": "http://uk-koeln.de/fhir/StructureDefinition/Extension/nNGM/tnm-cpu-praefix",
                      "code": "c"
                    }
                  ]
                }
              }
            ],
            "code": {
              "coding": [
                {
                  "system": "http://snomed.info/sct",
                  "code": "277206009"
                }
              ]
            },
            "valueCodeableConcept": {
              "coding": [
                {
                  "system": "urn:oid:2.16.840.1.113883.15.16",
                  "code": "N2"
                }
              ]
            }
          },
          {
            "extension": [
              {
                "url": "http://uk-koeln.de/fhir/StructureDefinition/Extension/nNGM/tnm-cpu-praefix",
                "valueCodeableConcept": {
                  "coding": [
                    {
                      "system": "http://uk-koeln.de/fhir/StructureDefinition/Extension/nNGM/tnm-cpu-praefix",
                      "code": "c"
                    }
                  ]
                }
              }
            ],
            "code": {
              "coding": [
                {
                  "system": "http://snomed.info/sct",
                  "code": "277208005"
                }
              ]
            },
            "valueCodeableConcept": {
              "coding": [
                {
                  "system": "urn:oid:2.16.840.1.113883.15.16",
                  "code": "M1a"
                }
              ]
            }
          },
          {
            "code": {
              "coding": [
                {
                  "system": "http://snomed.info/sct",
                  "code": "399566009"
                }
              ]
            },
            "valueCodeableConcept": {
              "coding": [
                {
                  "system": "urn:oid:2.16.840.1.113883.15.16",
                  "code": "r"
                }
              ]
            }
          }
        ]
      }
    },
    {
      "resource": {
        "resourceType": "Observation",
        "id": "8f534eaa51724777ae179dff36f961ab",
        "meta": {
          "profile": [
            "http://uk-koeln.de/fhir/StructureDefinition/Observation/nNGM/histologie"
          ]
        },
        "status": "final",
        "category": [
          {
            "coding": [
              {
                "system": "http://terminology.hl7.org/CodeSystem/observation-category",
                "code": "laboratory"
              }
            ]
          }
        ],
        "code": {
          "coding": [
            {
              "system": "http://loinc.org",
              "code": "59847-4"
            }
          ]
        },
        "subject": {
          "reference": "Patient/5bac5cba396a45d0b8de9e441a3209ef",
          "identifier": {
            "system": "http://uk-koeln.de/fhir/sid/nNGM/patient-pseudonym",
            "value": "031858"
          }
        },
        "effectiveDateTime": "2022-07-17",
        "valueCodeableConcept": {
          "coding": [
            {
              "system": "urn:oid:2.16.840.1.113883.6.43.1",
              "code": "8140/3"
            }
          ]
        },
        "bodySite": {
          "coding": [
            {
              "system": "http://terminology.hl7.org/CodeSystem/icd-o-3",
              "code": "C34.0"
            }
          ]
        },
        "component": [
          {
            "code": {
              "coding": [
                {
                  "system": "http://loinc.org",
                  "code": "59542-1"
                }
              ]
            },
            "valueCodeableConcept": {
              "coding": [
                {
                  "system": "urn:oid:2.16.840.1.113883.15.16",
                  "code": "G3"
                }
              ]
            }
          },
          {
            "code": {
              "coding": [
                {
                  "system": "http://snomed.info/sct",
                  "code": "112677002"
                }
              ]
            },
            "valueQuantity": {
              "value": 5,
              "unit": "%",
              "system": "http://unitsofmeasure.org",
              "code": "%"
            }
          },
          {
            "code": {
              "coding": [
                {
                  "system": "http://snomed.info/sct",
                  "code": "128703004"
                }
              ]
            },
            "valueQuantity": {
              "value": 6,
              "unit": "%",
              "system": "http://unitsofmeasure.org",
              "code": "%"
            }
          },
          {
            "code": {
              "coding": [
                {
                  "system": "http://snomed.info/sct",
                  "code": "4797003"
                }
              ]
            },
            "valueQuantity": {
              "value": 7,
              "unit": "%",
              "system": "http://unitsofmeasure.org",
              "code": "%"
            }
          },
          {
            "code": {
              "coding": [
                {
                  "system": "http://snomed.info/sct",
                  "code": "450895005"
                }
              ]
            },
            "valueQuantity": {
              "value": 2,
              "unit": "%",
              "system": "http://unitsofmeasure.org",
              "code": "%"
            }
          },
          {
            "code": {
              "coding": [
                {
                  "system": "http://snomed.info/sct",
                  "code": "81920005"
                }
              ]
            },
            "valueQuantity": {
              "value": 3,
              "unit": "%",
              "system": "http://unitsofmeasure.org",
              "code": "%"
            }
          },
          {
            "code": {
              "coding": [
                {
                  "system": "http://snomed.info/sct",
                  "code": "87737001"
                }
              ]
            },
            "valueQuantity": {
              "value": 21,
              "unit": "%",
              "system": "http://unitsofmeasure.org",
              "code": "%"
            }
          }
        ]
      }
    },
    {
      "resource": {
        "resourceType": "Observation",
        "id": "0205cb30b0974deaa706f93da503df92",
        "meta": {
          "profile": [
            "http://uk-koeln.de/fhir/StructureDefinition/Observation/nNGM/progress-relapse"
          ]
        },
        "status": "final",
        "category": [
          {
            "coding": [
              {
                "system": "http://terminology.hl7.org/CodeSystem/observation-category",
                "code": "survey"
              }
            ]
          }
        ],
        "code": {
          "coding": [
            {
              "system": "http://loinc.org",
              "code": "97509-4"
            }
          ]
        },
        "subject": {
          "reference": "Patient/5bac5cba396a45d0b8de9e441a3209ef",
          "identifier": {
            "system": "http://uk-koeln.de/fhir/sid/nNGM/patient-pseudonym",
            "value": "031858"
          }
        },
        "effectiveDateTime": "2022-07-17",
        "valueBoolean": true
      }
    },
    {
      "resource": {
        "resourceType": "Observation",
        "id": "c5015be8dcc244d784e1d973a66910fc",
        "meta": {
          "profile": [
            "http://uk-koeln.de/fhir/StructureDefinition/Observation/nNGM/tki-resistenz-alk"
          ]
        },
        "status": "final",
        "category": [
          {
            "coding": [
              {
                "system": "http://ncicb.nci.nih.gov/xml/owl/EVS/Thesaurus.owl",
                "code": "C1967"
              }
            ]
          }
        ],
        "code": {
          "coding": [
            {
              "system": "http://ncicb.nci.nih.gov/xml/owl/EVS/Thesaurus.owl",
              "code": "C142114"
            }
          ]
        },
        "subject": {
          "reference": "Patient/5bac5cba396a45d0b8de9e441a3209ef",
          "identifier": {
            "system": "http://uk-koeln.de/fhir/sid/nNGM/patient-pseudonym",
            "value": "031858"
          }
        },
        "effectiveDateTime": "2022-07-19",
        "dataAbsentReason": {
          "coding": [
            {
              "system": "http://terminology.hl7.org/CodeSystem/data-absent-reason",
              "code": "not-applicable"
            }
          ]
        },
        "component": [
          {
            "code": {
              "coding": [
                {
                  "system": "http://ncicb.nci.nih.gov/xml/owl/EVS/Thesaurus.owl",
                  "code": "C28510"
                }
              ]
            }
          }
        ]
      }
    },
    {
      "resource": {
        "resourceType": "ServiceRequest",
        "id": "467e430ac04740fab594f9f9713cc195",
        "meta": {
          "profile": [
            "http://uk-koeln.de/fhir/StructureDefinition/ServiceRequest/nNGM/AnforderungDerDiagnostik"
          ]
        },
        "status": "completed",
        "intent": "proposal",
        "code": {
          "coding": [
            {
              "system": "http://uk-koeln.de/fhir/CodeSystem/nNGM/anforderung-diagnostic-type",
              "code": "Gewebediagnostik"
            }
          ]
        },
        "orderDetail": [
          {
            "coding": [
              {
                "system": "http://uk-koeln.de/fhir/CodeSystem/nNGM/anforderung-diagnostic-request",
                "code": "single"
              }
            ]
          },
          {
            "coding": [
              {
                "system": "http://loinc.org",
                "code": "33055-5"
              }
            ]
          },
          {
            "coding": [
              {
                "system": "http://ncicb.nci.nih.gov/xml/owl/EVS/Thesaurus.owl",
                "code": "C18399"
              }
            ]
          },
          {
            "coding": [
              {
                "system": "http://uk-koeln.de/fhir/CodeSystem/nNGM/anforderung-fastTrack",
                "code": "EGFR EXON 19"
              }
            ]
          },
          {
            "coding": [
              {
                "system": "http://uk-koeln.de/fhir/CodeSystem/nNGM/anforderung-fastTrack",
                "code": "KRAS EXON 2"
              }
            ]
          }
        ],
        "subject": {
          "reference": "Patient/5bac5cba396a45d0b8de9e441a3209ef",
          "identifier": {
            "system": "http://uk-koeln.de/fhir/sid/nNGM/patient-pseudonym",
            "value": "031858"
          }
        },
        "authoredOn": "2022-07-19",
        "requester": {
          "reference": "Organization/16e9a1beaeb649428c49b64bfde2b5b9"
        },
        "performer": [
          {
            "reference": "Organization/16e9a1beaeb649428c49b64bfde2b5b9"
          }
        ],
        "specimen": [
          {
            "reference": "Specimen/540668b88d404f1fac816c2190c26993"
          }
        ]
      }
    },
    {
      "resource": {
        "resourceType": "Specimen",
        "id": "540668b88d404f1fac816c2190c26993",
        "meta": {
          "profile": [
            "http://uk-koeln.de/fhir/StructureDefinition/nNGM/Specimen"
          ]
        },
        "extension": [
          {
            "url": "http://uk-koeln.de/fhir/StructureDefinition/Extension/nNGM/aufenthaltsart",
            "valueCodeableConcept": {
              "coding": [
                {
                  "system": "http://terminology.hl7.org/CodeSystem/v3-ActCode",
                  "code": "AMB"
                }
              ]
            }
          },
          {
            "url": "http://uk-koeln.de/fhir/StructureDefinition/Extension/nNGM/specimen-tumormaterial-lagert-bei",
            "valueIdentifier": {
              "type": {
                "coding": [
                  {
                    "system": "http://uk-koeln.de/fhir/CodeSystem/nNGM/identifier-type",
                    "code": "PAT"
                  }
                ]
              },
              "system": "http://uk-koeln.de/fhir/sid/nngm/pathologist",
              "value": "PATHOLOGIST42"
            }
          }
        ],
        "type": {
          "coding": [
            {
              "system": "http://ncicb.nci.nih.gov/xml/owl/EVS/Thesaurus.owl",
              "code": "C12801"
            }
          ]
        },
        "subject": {
          "reference": "Patient/5bac5cba396a45d0b8de9e441a3209ef",
          "identifier": {
            "system": "http://uk-koeln.de/fhir/sid/nNGM/patient-pseudonym",
            "value": "031858"
          }
        },
        "collection": {
          "collectedDateTime": "2022-07-19"
        }
      }
    },
    {
      "resource": {
        "resourceType": "Coverage",
        "id": "eb7ac37196714575a0b97f409a922e86",
        "meta": {
          "profile": [
            "http://uk-koeln.de/fhir/StructureDefinition/nNGM/Coverage"
          ]
        },
        "identifier": [
          {
            "use": "secondary",
            "type": {
              "coding": [
                {
                  "system": "http://fhir.de/CodeSystem/identifier-type-de-basis",
                  "code": "PKV"
                }
              ]
            },
            "value": "Bayerische Beamtenkrankenkasse"
          }
        ],
        "status": "active",
        "type": {
          "coding": [
            {
              "system": "http://fhir.de/CodeSystem/versicherungsart-de-basis",
              "code": "PKV"
            }
          ]
        },
        "beneficiary": {
          "reference": "Patient/5bac5cba396a45d0b8de9e441a3209ef",
          "identifier": {
            "system": "http://uk-koeln.de/fhir/sid/nNGM/patient-pseudonym",
            "value": "031858"
          }
        },
        "payor": [
          {
            "display": "Bayerische Beamtenkrankenkasse"
          }
        ]
      }
    }
  ]
}