{
  "resourceType": "Bundle",
  "identifier": {
    "system": "http://uk-koeln.de/fhir/sid/bundle-identifier",
    "value": "846279513"
  },
  "type": "document",
  "timestamp": "2022-09-02T15:33:42+02:00",
  "entry": [
    {
      "resource": {
        "resourceType": "Composition",
        "id": "Example_Composition_567314-000",
        "meta": {
          "profile": [
            "http://uk-koeln.de/fhir/StructureDefinition/nNGM/Composition"
          ]
        },
        "identifier": {
          "system": "http://uk-koeln.de/fhir/sid/nngm-case-no",
          "value": "567314-000"
        },
        "status": "final",
        "type": {
          "coding": [
            {
              "system": "http://loinc.org",
              "code": "11503-0"
            }
          ]
        },
        "subject": {
          "reference": "Patient/Example_Patient_54781014"
          
        },
        "date": "2022-09-02T15:26:42+02:00",
        "author": [
          {
            "reference": "Organization/Example_Organization_Universitätsklinikum_Koeln"
          }
        ],
        "title": "Composition 2a06b4ad53ed471892e0ad886ef08355",
        "section": [
          {
            "code": {
              "coding": [
                {
                  "system": "http://uk-koeln.de/fhir/CodeSystem/nNGM/CompositionSectionType",
                  "code": "CONSENT"
                }
              ]
            },
            "entry": [
              {
                "reference": "Consent/Example_Consent_1"
              },
              {
                "reference": "Consent/Example_Consent_2"
              },
              {
                "reference": "Consent/Example_Consent_DIGINET"
              },
              {
                "reference": "Consent/Example_Consent_EKAZB"
              },
              {
                "reference": "Consent/Example_Consent_EKAZI"
              },
              {
                "reference": "Consent/Example_Consent_EVND"
              },
              {
                "reference": "Consent/Example_Consent_GDWR"
              },
              {
                "reference": "Consent/Example_Consent_GLNB"
              },
              {
                "reference": "Consent/Example_Consent_KNBM"
              },
              {
                "reference": "Consent/Example_Consent_ÜNKKD"
              },
              {
                "reference": "Consent/Example_Consent_ÜVN"
              },
              {
                "reference": "Consent/Example_Consent_WDL"
              }
            ]
          },
          {
            "code": {
              "coding": [
                {
                  "system": "http://uk-koeln.de/fhir/CodeSystem/nNGM/CompositionSectionType",
                  "code": "COVERAGE"
                }
              ]
            },
            "entry": [
              {
                "reference": "Coverage/Example_Coverage_Versicherungsverhältnis"
              }
            ]
          },
          {
            "code": {
              "coding": [
                {
                  "system": "http://uk-koeln.de/fhir/CodeSystem/nNGM/CompositionSectionType",
                  "code": "TOBACCO_SMOKING"
                }
              ]
            },
            "entry": [
              {
                "reference": "Observation/Example_Observation_Raucherstatus"
              }
            ]
          },
          {
            "code": {
              "coding": [
                {
                  "system": "http://uk-koeln.de/fhir/CodeSystem/nNGM/CompositionSectionType",
                  "code": "VITAL_STATES"
                }
              ]
            },
            "entry": [
              {
                "reference": "Observation/Example_Observation_Vitalstatus"
              }
            ]
          },
          {
            "code": {
              "coding": [
                {
                  "system": "http://uk-koeln.de/fhir/CodeSystem/nNGM/CompositionSectionType",
                  "code": "ECOGS"
                }
              ]
            },
            "entry": [
              {
                "reference": "Observation/Example_Observation_ECOG"
              }
            ]
          },
          {
            "code": {
              "coding": [
                {
                  "system": "http://uk-koeln.de/fhir/CodeSystem/nNGM/CompositionSectionType",
                  "code": "DIAGNOSTICS_REQUEST"
                }
              ]
            },
            "entry": [
              {
                "reference": "ServiceRequest/Example_ServiceRequest_AnforderungDerDiagnostik"
              }
            ]
          },
          {
            "code": {
              "coding": [
                {
                  "system": "http://uk-koeln.de/fhir/CodeSystem/nNGM/CompositionSectionType",
                  "code": "TKI_RESISTANCES"
                }
              ]
            },
            "entry": [
              {
                "reference": "Observation/Example_Observation_TKI-Resistenz-ALK"
              }
            ]
          },
          {
            "code": {
              "coding": [
                {
                  "system": "http://uk-koeln.de/fhir/CodeSystem/nNGM/CompositionSectionType",
                  "code": "TUMOR_PROGRESS_RECURRENCES"
                }
              ]
            },
            "entry": [
              {
                "reference": "Observation/Example_Observation_Progress-Relapse"
              }
            ]
          },
          {
            "code": {
              "coding": [
                {
                  "system": "http://uk-koeln.de/fhir/CodeSystem/nNGM/CompositionSectionType",
                  "code": "TUMOR_HISTOLOGIES"
                }
              ]
            },
            "entry": [
              {
                "reference": "Observation/Example_Observation_Histologie"
              }
            ]
          },
          {
            "code": {
              "coding": [
                {
                  "system": "http://uk-koeln.de/fhir/CodeSystem/nNGM/CompositionSectionType",
                  "code": "TUMOR_STAGES"
                }
              ]
            },
            "entry": [
              {
                "reference": "Observation/Example_Observation_Tumorstadium"
              }
            ]
          },
          {
            "code": {
              "coding": [
                {
                  "system": "http://uk-koeln.de/fhir/CodeSystem/nNGM/CompositionSectionType",
                  "code": "FIRST_DIAGNOSIS"
                }
              ]
            },
            "entry": [
              {
                "reference": "Condition/Example_Condition_Erstdiagnose"
              }
            ]
          }
        ]
      }
    },
    {
      "resource": {
        "resourceType": "Patient",
        "id": "Example_Patient_54781014",
        "meta": {
          "profile": [
            "http://uk-koeln.de/fhir/StructureDefinition/Patient/nNGM/patient"
          ]
        },
        "name": [
          {
            "use": "official",
            "family": "Schmidt",
            "given": [
              "Herbert"
            ]
          }
        ],
        "gender": "male",
        "birthDate": "1954-11-21",
        "address": [
          {
            "line": [
              "Brückstraße 43"
            ],
            "_line": [
              {
                "extension": [
                  {
                    "url": "http://hl7.org/fhir/StructureDefinition/iso21090-ADXP-streetName",
                    "valueString": "Brückstraße"
                  },
                  {
                    "url": "http://hl7.org/fhir/StructureDefinition/iso21090-ADXP-houseNumber",
                    "valueString": "43"
                  }
                ]
              }
            ],
            "city": "Hamburg",
            "postalCode": "20095"
          }
        ]
      }
    },
    {
      "resource": {
        "resourceType": "Organization",
        "id": "Example_Organization_Universitätsklinikum_Koeln",
        "meta": {
          "profile": [
            "http://uk-koeln.de/fhir/StructureDefinition/Organisation/nNGM"
          ]
        },
        "identifier": [
          {
            "system": "http://uk-koeln.de/fhir/sid/nNGM/nms-organization",
            "value": "SZ-00002"
          }
        ],        
        "name": "Universitätsklinikum Köln"
      }
    },
    {
      "resource": {
        "resourceType": "Observation",
        "id": "Example_Observation_Vitalstatus",
        "meta": {
          "profile": [
            "http://uk-koeln.de/fhir/StructureDefinition/nNGM/Vitalstatus"
          ]
        },
        "status": "final",
        "category": [
          {
            "coding": [
              {
                "system": "http://terminology.hl7.org/CodeSystem/observation-category",
                "code": "survey"
              }
            ]
          }
        ],
        "code": {
          "coding": [
            {
              "system": "http://loinc.org",
              "code": "67162-8"
            }
          ]
        },
        "subject": {
          "reference": "Patient/Example_Patient_54781014"
        },
        "effectiveDateTime": "2022-07-19",
        "valueCodeableConcept": {
          "extension": [
            {
              "url": "http://uk-koeln.de/fhir/StructureDefinition/Extension/nNGM/todesdatum",
              "valueDateTime": "2021-05-05"
            },
            {
              "url": "http://uk-koeln.de/fhir/StructureDefinition/Extension/nNGM/iqt",
              "valueCodeableConcept": {
                "coding": [
                  {
                    "system": "http://uk-koeln.de/fhir/CodeSystem/nNGM/izt",
                    "code": "Arztbrief"
                  }
                ]
              }
            }
          ],
          "coding": [
            {
              "system": "http://uk-koeln.de/fhir/CodeSystem/nNGM/Vitalstatus",
              "code": "T"
            }
          ]
        }
      }
    },
    {
      "resource": {
        "resourceType": "Observation",
        "id": "Example_Observation_Raucherstatus",
        "meta": {
          "profile": [
            "http://uk-koeln.de/fhir/StructureDefinition/Observation/nNGM/raucherstatus"
          ]
        },
        "status": "final",
        "category": [
          {
            "coding": [
              {
                "system": "http://terminology.hl7.org/CodeSystem/observation-category",
                "code": "social-history"
              }
            ]
          }
        ],
        "code": {
          "coding": [
            {
              "system": "http://loinc.org",
              "code": "72166-2"
            }
          ]
        },
        "subject": {
          "reference": "Patient/Example_Patient_54781014"
        },
        "effectiveDateTime": "2022-07-19",
        "valueCodeableConcept": {
          "coding": [
            {
              "system": "http://loinc.org",
              "code": "LA15920-4"
            }
          ]
        },
        "component": [
          {
            "code": {
              "coding": [
                {
                  "system": "http://ncicb.nci.nih.gov/xml/owl/EVS/Thesaurus.owl",
                  "code": "C124908"
                }
              ]
            },
            "valueQuantity": {
              "value": 5,
              "unit": "a",
              "system": "http://unitsofmeasure.org",
              "code": "a"
            }
          },
          {
            "code": {
              "coding": [
                {
                  "system": "http://ncicb.nci.nih.gov/xml/owl/EVS/Thesaurus.owl",
                  "code": "C73993"
                }
              ]
            },
            "valueQuantity": {
              "value": 10,
              "unit": "{PackYears}",
              "system": "http://unitsofmeasure.org",
              "code": "{PackYears}"
            }
          }
        ]
      }
    },
    {
      "resource": {
        "resourceType": "Observation",
        "id": "Example_Observation_ECOG",
        "meta": {
          "profile": [
            "http://uk-koeln.de/fhir/StructureDefinition/Observation/nNGM/ecog"
          ]
        },
        "basedOn": [
          {
            "reference": "ServiceRequest/Example_ServiceRequest_AnforderungDerDiagnostik"
          }
        ],
        "status": "final",
        "category": [
          {
            "coding": [
              {
                "system": "http://terminology.hl7.org/CodeSystem/observation-category",
                "code": "survey"
              }
            ]
          }
        ],
        "code": {
          "coding": [
            {
              "system": "http://loinc.org",
              "code": "89247-1"
            }
          ]
        },
        "subject": {
          "reference": "Patient/Example_Patient_54781014"
        },
        "effectiveDateTime": "2022-07-19",
        "valueCodeableConcept": {
          "coding": [
            {
              "system": "http://loinc.org",
              "code": "LA9625-0"
            }
          ]
        }
      }
    },
    {
      "resource": {
        "resourceType": "Observation",
        "id": "Example_Observation_Tumorstadium",
        "meta": {
          "profile": [
            "http://uk-koeln.de/fhir/StructureDefinition/Observation/nNGM/tumorstadium"
          ]
        },
        "extension": [
          {
            "url": "http://uk-koeln.de/fhir/StructureDefinition/Extension/nNGM/tnm-kurativ-operabel",
            "valueBoolean": false
          },
          {
            "url": "http://uk-koeln.de/fhir/StructureDefinition/Extension/nNGM/tnm-erstdiagnose",
            "valueBoolean": false
          }
        ],
        "status": "final",
        "category": [
          {
            "coding": [
              {
                "system": "http://terminology.hl7.org/CodeSystem/observation-category",
                "code": "survey"
              }
            ]
          }
        ],
        "code": {
          "coding": [
            {
              "system": "http://snomed.info/sct",
              "code": "260879005"
            }
          ]
        },
        "subject": {
          "reference": "Patient/Example_Patient_54781014"
        },
        "effectiveDateTime": "2022-07-18",
        "valueCodeableConcept": {
          "coding": [
            {
              "system": "urn:oid:2.16.840.1.113883.15.16",
              "code": "IVA"
            }
          ]
        },
        "component": [
          {
            "extension": [
              {
                "url": "http://uk-koeln.de/fhir/StructureDefinition/Extension/nNGM/tnm-cpu-praefix",
                "valueCodeableConcept": {
                  "coding": [
                    {
                      "system": "http://uk-koeln.de/fhir/CodeSystem/nNGM/tnm-cpu-praefix",
                      "code": "c"
                    }
                  ]
                }
              },
              {
                "url": "http://uk-koeln.de/fhir/StructureDefinition/Extension/nNGM/tnm-suffix-t",
                "valueCodeableConcept": {
                  "coding": [
                    {
                      "system": "http://uk-koeln.de/fhir/CodeSystem/nNGM/tnm-suffix-t",
                      "code": "is"
                    }
                  ]
                }
              }
            ],
            "code": {
              "coding": [
                {
                  "system": "http://snomed.info/sct",
                  "code": "78873005"
                }
              ]
            },
            "valueCodeableConcept": {
              "coding": [
                {
                  "system": "urn:oid:2.16.840.1.113883.15.16",
                  "code": "T1b"
                }
              ]
            }
          },
          {
            "extension": [
              {
                "url": "http://uk-koeln.de/fhir/StructureDefinition/Extension/nNGM/tnm-cpu-praefix",
                "valueCodeableConcept": {
                  "coding": [
                    {
                      "system": "http://uk-koeln.de/fhir/CodeSystem/nNGM/tnm-cpu-praefix",
                      "code": "c"
                    }
                  ]
                }
              }
            ],
            "code": {
              "coding": [
                {
                  "system": "http://snomed.info/sct",
                  "code": "277206009"
                }
              ]
            },
            "valueCodeableConcept": {
              "coding": [
                {
                  "system": "urn:oid:2.16.840.1.113883.15.16",
                  "code": "N2"
                }
              ]
            }
          },
          {
            "extension": [
              {
                "url": "http://uk-koeln.de/fhir/StructureDefinition/Extension/nNGM/tnm-cpu-praefix",
                "valueCodeableConcept": {
                  "coding": [
                    {
                      "system": "http://uk-koeln.de/fhir/CodeSystem/nNGM/tnm-cpu-praefix",
                      "code": "c"
                    }
                  ]
                }
              }
            ],
            "code": {
              "coding": [
                {
                  "system": "http://snomed.info/sct",
                  "code": "277208005"
                }
              ]
            },
            "valueCodeableConcept": {
              "coding": [
                {
                  "system": "urn:oid:2.16.840.1.113883.15.16",
                  "code": "M1a"
                }
              ]
            }
          },
          {
            "code": {
              "coding": [
                {
                  "system": "http://snomed.info/sct",
                  "code": "399566009"
                }
              ]
            },
            "valueCodeableConcept": {
              "coding": [
                {
                  "system": "urn:oid:2.16.840.1.113883.15.16",
                  "code": "r"
                }
              ]
            }
          }
        ]
      }
    },
    {
      "resource": {
        "resourceType": "Observation",
        "id": "Example_Observation_Histologie",
        "meta": {
          "profile": [
            "http://uk-koeln.de/fhir/StructureDefinition/Observation/nNGM/histologie"
          ]
        },
        "status": "final",
        "category": [
          {
            "coding": [
              {
                "system": "http://terminology.hl7.org/CodeSystem/observation-category",
                "code": "laboratory"
              }
            ]
          }
        ],
        "code": {
          "coding": [
            {
              "system": "http://loinc.org",
              "code": "59847-4"
            }
          ]
        },
        "subject": {
          "reference": "Patient/Example_Patient_54781014"
        },
        "effectiveDateTime": "2022-07-17",
        "valueCodeableConcept": {
          "coding": [
            {
              "system": "urn:oid:2.16.840.1.113883.6.43.1",
              "code": "8140/3"
            }
          ]
        },
        "bodySite": {
          "coding": [
            {
              "system": "http://terminology.hl7.org/CodeSystem/icd-o-3",
              "code": "C34.0"
            }
          ]
        },
        "component": [
          {
            "code": {
              "coding": [
                {
                  "system": "http://loinc.org",
                  "code": "59542-1"
                }
              ]
            },
            "valueCodeableConcept": {
              "coding": [
                {
                  "system": "urn:oid:2.16.840.1.113883.15.16",
                  "code": "G3"
                }
              ]
            }
          },
          {
            "code": {
              "coding": [
                {
                  "system": "http://snomed.info/sct",
                  "code": "112677002"
                }
              ]
            },
            "valueQuantity": {
              "value": 5,
              "unit": "%",
              "system": "http://unitsofmeasure.org",
              "code": "%"
            }
          },
          {
            "code": {
              "coding": [
                {
                  "system": "http://snomed.info/sct",
                  "code": "128703004"
                }
              ]
            },
            "valueQuantity": {
              "value": 6,
              "unit": "%",
              "system": "http://unitsofmeasure.org",
              "code": "%"
            }
          },
          {
            "code": {
              "coding": [
                {
                  "system": "http://snomed.info/sct",
                  "code": "4797003"
                }
              ]
            },
            "valueQuantity": {
              "value": 7,
              "unit": "%",
              "system": "http://unitsofmeasure.org",
              "code": "%"
            }
          },
          {
            "code": {
              "coding": [
                {
                  "system": "http://snomed.info/sct",
                  "code": "450895005"
                }
              ]
            },
            "valueQuantity": {
              "value": 2,
              "unit": "%",
              "system": "http://unitsofmeasure.org",
              "code": "%"
            }
          },
          {
            "code": {
              "coding": [
                {
                  "system": "http://snomed.info/sct",
                  "code": "81920005"
                }
              ]
            },
            "valueQuantity": {
              "value": 3,
              "unit": "%",
              "system": "http://unitsofmeasure.org",
              "code": "%"
            }
          },
          {
            "code": {
              "coding": [
                {
                  "system": "http://snomed.info/sct",
                  "code": "87737001"
                }
              ]
            },
            "valueQuantity": {
              "value": 21,
              "unit": "%",
              "system": "http://unitsofmeasure.org",
              "code": "%"
            }
          }
        ]
      }
    },
    {
      "resource": {
        "resourceType": "Observation",
        "id": "Example_Observation_Progress-Relapse",
        "meta": {
          "profile": [
            "http://uk-koeln.de/fhir/StructureDefinition/Observation/nNGM/progress-relapse"
          ]
        },
        "status": "final",
        "category": [
          {
            "coding": [
              {
                "system": "http://terminology.hl7.org/CodeSystem/observation-category",
                "code": "survey"
              }
            ]
          }
        ],
        "code": {
          "coding": [
            {
              "system": "http://loinc.org",
              "code": "97509-4"
            }
          ]
        },
        "subject": {
          "reference": "Patient/Example_Patient_54781014"
        },
        "effectiveDateTime": "2022-07-17",
        "valueBoolean": true
      }
    },
    {
      "resource": {
        "resourceType": "Observation",
        "id": "Example_Observation_TKI-Resistenz-ALK",
        "meta": {
          "profile": [
            "http://uk-koeln.de/fhir/StructureDefinition/Observation/nNGM/tki-resistenz-alk"
          ]
        },
        "status": "final",
        "category": [
          {
            "coding": [
              {
                "system": "http://ncicb.nci.nih.gov/xml/owl/EVS/Thesaurus.owl",
                "code": "C1967"
              }
            ]
          }
        ],
        "code": {
          "coding": [
            {
              "system": "http://ncicb.nci.nih.gov/xml/owl/EVS/Thesaurus.owl",
              "code": "C142114"
            }
          ]
        },
        "subject": {
          "reference": "Patient/Example_Patient_54781014"
        },
        "effectiveDateTime": "2022-07-19",
        "dataAbsentReason": {
          "coding": [
            {
              "system": "http://terminology.hl7.org/CodeSystem/data-absent-reason",
              "code": "not-applicable"
            }
          ]
        },
        "component": [
          {
            "code": {
              "coding": [
                {
                  "system": "http://ncicb.nci.nih.gov/xml/owl/EVS/Thesaurus.owl",
                  "code": "C28510"
                }
              ]
            }
          }
        ]
      }
    },
    {
      "resource": {
        "resourceType": "ServiceRequest",
        "id": "Example_ServiceRequest_AnforderungDerDiagnostik",
        "meta": {
          "profile": [
            "http://uk-koeln.de/fhir/StructureDefinition/ServiceRequest/nNGM/AnforderungDerDiagnostik"
          ]
        },
        "status": "completed",
        "intent": "proposal",
        "code": {
          "coding": [
            {
              "system": "http://uk-koeln.de/fhir/CodeSystem/nNGM/anforderung-diagnostic-type",
              "code": "Gewebediagnostik"
            }
          ]
        },
        "orderDetail": [
          {
            "coding": [
              {
                "system": "http://uk-koeln.de/fhir/CodeSystem/nNGM/anforderung-diagnostic-request",
                "code": "single"
              }
            ]
          },
          {
            "coding": [
              {
                "system": "http://loinc.org",
                "code": "33055-5"
              }
            ]
          },
          {
            "coding": [
              {
                "system": "http://ncicb.nci.nih.gov/xml/owl/EVS/Thesaurus.owl",
                "code": "C18399"
              }
            ]
          },
          {
            "coding": [
              {
                "system": "http://uk-koeln.de/fhir/CodeSystem/nNGM/anforderung-fastTrack",
                "code": "EGFR EXON 19"
              }
            ]
          },
          {
            "coding": [
              {
                "system": "http://uk-koeln.de/fhir/CodeSystem/nNGM/anforderung-fastTrack",
                "code": "KRAS EXON 2"
              }
            ]
          }
        ],
        "subject": {
          "reference": "Patient/Example_Patient_54781014"
        },
        "authoredOn": "2022-07-19",
        "requester": {
          "reference": "Organization/Example_Organization_Universitätsklinikum_Koeln"
        },
        "performer": [
          {
            "reference": "Organization/Example_Organization_Universitätsklinikum_Koeln"
          }
        ],
        "specimen": [
          {
            "reference": "Specimen/Example_Specimen_Tumormaterial"
          }
        ]
      }
    },
    {
      "resource": {
        "resourceType": "Specimen",
        "id": "Example_Specimen_Tumormaterial",
        "meta": {
          "profile": [
            "http://uk-koeln.de/fhir/StructureDefinition/nNGM/Specimen"
          ]
        },
        "extension": [
          {
            "url": "http://uk-koeln.de/fhir/StructureDefinition/Extension/nNGM/aufenthaltsart",
            "valueCodeableConcept": {
              "coding": [
                {
                  "system": "http://terminology.hl7.org/CodeSystem/v3-ActCode",
                  "code": "AMB"
                }
              ]
            }
          },
          {
            "url": "http://uk-koeln.de/fhir/StructureDefinition/Extension/nNGM/specimen-tumormaterial-lagert-bei",
            "valueIdentifier": {
              "type": {
                "coding": [
                  {
                    "system": "http://uk-koeln.de/fhir/CodeSystem/nNGM/identifier-type",
                    "code": "PAT"
                  }
                ]
              },
              "system": "http://uk-koeln.de/fhir/sid/nngm/pathologist",
              "value": "PATHOLOGIST42"
            }
          }
        ],
        "type": {
          "coding": [
            {
              "system": "http://ncicb.nci.nih.gov/xml/owl/EVS/Thesaurus.owl",
              "code": "C12801"
            }
          ]
        },
        "subject": {
          "reference": "Patient/Example_Patient_54781014"
        },
        "collection": {
          "collectedDateTime": "2022-07-19"
        }
      }
    },
    {
      "resource": {
        "resourceType": "Coverage",
        "id": "Example_Coverage_Versicherungsverhältnis",
        "meta": {
          "profile": [
            "http://uk-koeln.de/fhir/StructureDefinition/nNGM/Coverage"
          ]
        },
        "identifier": [
          {
            "use": "secondary",
            "type": {
              "coding": [
                {
                  "system": "http://fhir.de/CodeSystem/identifier-type-de-basis",
                  "code": "PKV"
                }
              ]
            },
            "value": "445900012"
          }
        ],
        "status": "active",
        "type": {
          "coding": [
            {
              "system": "http://uk-koeln.de/fhir/CodeSystem/nNGM/krankenkassentypen",
              "code": "PKV"
            }
          ]
        },
        "beneficiary": {
          "reference": "Patient/Example_Patient_54781014"
        },
        "payor": [
          {
            "display": "Bayerische Beamtenkrankenkasse"
          }
        ]
      }
    },
    {
      "resource": {
        "resourceType": "Consent",
        "id": "Example_Consent_1",
        "meta": {
          "profile": [
            "http://uk-koeln.de/fhir/StructureDefinition/nNGM/ConsentV4"
          ]
        },
        "status": "active",
        "scope": {
          "coding": [
            {
              "system": "http://terminology.hl7.org/CodeSystem/consentscope",
              "code": "patient-privacy"
            }
          ]
        },
        "category": [
          {
            "coding": [
              {
                "system": "http://loinc.org",
                "code": "59284-0"
              }
            ]
          }
        ],
        "patient": {
          "reference": "Patient/Example_Patient_54781014"
        },
        "dateTime": "2022-10-06T00:00:00+02:00",
        "policyRule": {
          "coding": [
            {
              "system": "http://uk-koeln.de/fhir/CodeSystem/nNGM/nngm-consent-policy-v4",
              "version": "v4",
              "code": "1"
            }
          ]
        },
        "provision": {
          "type": "permit"
        }
      }
    },
    {
      "resource": {
        "resourceType": "Consent",
        "id": "Example_Consent_2",
        "meta": {
          "profile": [
            "http://uk-koeln.de/fhir/StructureDefinition/nNGM/ConsentV4"
          ]
        },
        "status": "active",
        "scope": {
          "coding": [
            {
              "system": "http://terminology.hl7.org/CodeSystem/consentscope",
              "code": "patient-privacy"
            }
          ]
        },
        "category": [
          {
            "coding": [
              {
                "system": "http://loinc.org",
                "code": "59284-0"
              }
            ]
          }
        ],
        "patient": {
          "reference": "Patient/Example_Patient_54781014"
        },
        "dateTime": "2022-10-06T00:00:00+02:00",
        "policyRule": {
          "coding": [
            {
              "system": "http://uk-koeln.de/fhir/CodeSystem/nNGM/nngm-consent-policy-v4",
              "version": "v4",
              "code": "2"
            }
          ]
        },
        "provision": {
          "type": "permit"
        }
      }
    },
    {
      "resource": {
        "resourceType": "Consent",
        "id": "Example_Consent_EVND",
        "meta": {
          "profile": [
            "http://uk-koeln.de/fhir/StructureDefinition/nNGM/ConsentV4"
          ]
        },
        "status": "active",
        "scope": {
          "coding": [
            {
              "system": "http://terminology.hl7.org/CodeSystem/consentscope",
              "code": "patient-privacy"
            }
          ]
        },
        "category": [
          {
            "coding": [
              {
                "system": "http://loinc.org",
                "code": "59284-0"
              }
            ]
          }
        ],
        "patient": {
          "reference": "Patient/Example_Patient_54781014"
        },
        "dateTime": "2022-10-06T00:00:00+02:00",
        "policyRule": {
          "coding": [
            {
              "system": "http://uk-koeln.de/fhir/CodeSystem/nNGM/nngm-consent-policy-v4",
              "version": "v4",
              "code": "EVND"
            }
          ]
        },
        "provision": {
          "type": "permit"
        }
      }
    },
    {
      "resource": {
        "resourceType": "Consent",
        "id": "Example_Consent_GLNB",
        "meta": {
          "profile": [
            "http://uk-koeln.de/fhir/StructureDefinition/nNGM/ConsentV4"
          ]
        },
        "status": "active",
        "scope": {
          "coding": [
            {
              "system": "http://terminology.hl7.org/CodeSystem/consentscope",
              "code": "patient-privacy"
            }
          ]
        },
        "category": [
          {
            "coding": [
              {
                "system": "http://loinc.org",
                "code": "59284-0"
              }
            ]
          }
        ],
        "patient": {
          "reference": "Patient/Example_Patient_54781014"
        },
        "dateTime": "2022-10-06T00:00:00+02:00",
        "policyRule": {
          "coding": [
            {
              "system": "http://uk-koeln.de/fhir/CodeSystem/nNGM/nngm-consent-policy-v4",
              "version": "v4",
              "code": "GLNB"
            }
          ]
        },
        "provision": {
          "type": "permit"
        }
      }
    },
    {
      "resource": {
        "resourceType": "Consent",
        "id": "Example_Consent_ÜNKKD",
        "meta": {
          "profile": [
            "http://uk-koeln.de/fhir/StructureDefinition/nNGM/ConsentV4"
          ]
        },
        "status": "active",
        "scope": {
          "coding": [
            {
              "system": "http://terminology.hl7.org/CodeSystem/consentscope",
              "code": "patient-privacy"
            }
          ]
        },
        "category": [
          {
            "coding": [
              {
                "system": "http://loinc.org",
                "code": "59284-0"
              }
            ]
          }
        ],
        "patient": {
          "reference": "Patient/Example_Patient_54781014"
        },
        "dateTime": "2022-10-06T00:00:00+02:00",
        "policyRule": {
          "coding": [
            {
              "system": "http://uk-koeln.de/fhir/CodeSystem/nNGM/nngm-consent-policy-v4",
              "version": "v4",
              "code": "ÜNKKD"
            }
          ]
        },
        "provision": {
          "type": "permit"
        }
      }
    },
    {
      "resource": {
        "resourceType": "Consent",
        "id": "Example_Consent_ÜVN",
        "meta": {
          "profile": [
            "http://uk-koeln.de/fhir/StructureDefinition/nNGM/ConsentV4"
          ]
        },
        "status": "active",
        "scope": {
          "coding": [
            {
              "system": "http://terminology.hl7.org/CodeSystem/consentscope",
              "code": "patient-privacy"
            }
          ]
        },
        "category": [
          {
            "coding": [
              {
                "system": "http://loinc.org",
                "code": "59284-0"
              }
            ]
          }
        ],
        "patient": {
          "reference": "Patient/Example_Patient_54781014"
        },
        "dateTime": "2022-10-06T00:00:00+02:00",
        "policyRule": {
          "coding": [
            {
              "system": "http://uk-koeln.de/fhir/CodeSystem/nNGM/nngm-consent-policy-v4",
              "version": "v4",
              "code": "ÜVN"
            }
          ]
        },
        "provision": {
          "type": "permit"
        }
      }
    },
    {
      "resource": {
        "resourceType": "Consent",
        "id": "Example_Consent_EKAZI",
        "meta": {
          "profile": [
            "http://uk-koeln.de/fhir/StructureDefinition/nNGM/ConsentV4"
          ]
        },
        "status": "active",
        "scope": {
          "coding": [
            {
              "system": "http://terminology.hl7.org/CodeSystem/consentscope",
              "code": "patient-privacy"
            }
          ]
        },
        "category": [
          {
            "coding": [
              {
                "system": "http://loinc.org",
                "code": "59284-0"
              }
            ]
          }
        ],
        "patient": {
          "reference": "Patient/Example_Patient_54781014"
        },
        "dateTime": "2022-10-06T00:00:00+02:00",
        "policyRule": {
          "coding": [
            {
              "system": "http://uk-koeln.de/fhir/CodeSystem/nNGM/nngm-consent-policy-v4",
              "version": "v4",
              "code": "EKAZI"
            }
          ]
        },
        "provision": {
          "type": "permit"
        }
      }
    },
    {
      "resource": {
        "resourceType": "Consent",
        "id": "Example_Consent_EKAZB",
        "meta": {
          "profile": [
            "http://uk-koeln.de/fhir/StructureDefinition/nNGM/ConsentV4"
          ]
        },
        "status": "active",
        "scope": {
          "coding": [
            {
              "system": "http://terminology.hl7.org/CodeSystem/consentscope",
              "code": "patient-privacy"
            }
          ]
        },
        "category": [
          {
            "coding": [
              {
                "system": "http://loinc.org",
                "code": "59284-0"
              }
            ]
          }
        ],
        "patient": {
          "reference": "Patient/Example_Patient_54781014"
        },
        "dateTime": "2022-10-06T00:00:00+02:00",
        "policyRule": {
          "coding": [
            {
              "system": "http://uk-koeln.de/fhir/CodeSystem/nNGM/nngm-consent-policy-v4",
              "version": "v4",
              "code": "EKAZB"
            }
          ]
        },
        "provision": {
          "type": "permit"
        }
      }
    },
    {
      "resource": {
        "resourceType": "Consent",
        "id": "Example_Consent_KNBM",
        "meta": {
          "profile": [
            "http://uk-koeln.de/fhir/StructureDefinition/nNGM/ConsentV4"
          ]
        },
        "status": "active",
        "scope": {
          "coding": [
            {
              "system": "http://terminology.hl7.org/CodeSystem/consentscope",
              "code": "patient-privacy"
            }
          ]
        },
        "category": [
          {
            "coding": [
              {
                "system": "http://loinc.org",
                "code": "59284-0"
              }
            ]
          }
        ],
        "patient": {
          "reference": "Patient/Example_Patient_54781014"
        },
        "dateTime": "2022-10-06T00:00:00+02:00",
        "policyRule": {
          "coding": [
            {
              "system": "http://uk-koeln.de/fhir/CodeSystem/nNGM/nngm-consent-policy-v4",
              "version": "v4",
              "code": "KNBM"
            }
          ]
        },
        "provision": {
          "type": "permit"
        }
      }
    },
    {
      "resource": {
        "resourceType": "Consent",
        "id": "Example_Consent_WDL",
        "meta": {
          "profile": [
            "http://uk-koeln.de/fhir/StructureDefinition/nNGM/ConsentV4"
          ]
        },
        "status": "active",
        "scope": {
          "coding": [
            {
              "system": "http://terminology.hl7.org/CodeSystem/consentscope",
              "code": "patient-privacy"
            }
          ]
        },
        "category": [
          {
            "coding": [
              {
                "system": "http://loinc.org",
                "code": "59284-0"
              }
            ]
          }
        ],
        "patient": {
          "reference": "Patient/Example_Patient_54781014"
        },
        "dateTime": "2022-10-06T00:00:00+02:00",
        "policyRule": {
          "coding": [
            {
              "system": "http://uk-koeln.de/fhir/CodeSystem/nNGM/nngm-consent-policy-v4",
              "version": "v4",
              "code": "WDL"
            }
          ]
        },
        "provision": {
          "type": "permit"
        }
      }
    },
    {
      "resource": {
        "resourceType": "Consent",
        "id": "Example_Consent_GDWR",
        "meta": {
          "profile": [
            "http://uk-koeln.de/fhir/StructureDefinition/nNGM/ConsentV4"
          ]
        },
        "status": "active",
        "scope": {
          "coding": [
            {
              "system": "http://terminology.hl7.org/CodeSystem/consentscope",
              "code": "patient-privacy"
            }
          ]
        },
        "category": [
          {
            "coding": [
              {
                "system": "http://loinc.org",
                "code": "59284-0"
              }
            ]
          }
        ],
        "patient": {
          "reference": "Patient/Example_Patient_54781014"
        },
        "dateTime": "2022-10-06T00:00:00+02:00",
        "policyRule": {
          "coding": [
            {
              "system": "http://uk-koeln.de/fhir/CodeSystem/nNGM/nngm-consent-policy-v4",
              "version": "v4",
              "code": "GDWR"
            }
          ]
        },
        "provision": {
          "type": "permit"
        }
      }
    },
    {
      "resource": {
        "resourceType": "Consent",
        "id": "Example_Consent_DIGINET",
        "meta": {
          "profile": [
            "http://uk-koeln.de/fhir/StructureDefinition/nNGM/ConsentV4"
          ]
        },
        "status": "active",
        "scope": {
          "coding": [
            {
              "system": "http://terminology.hl7.org/CodeSystem/consentscope",
              "code": "patient-privacy"
            }
          ]
        },
        "category": [
          {
            "coding": [
              {
                "system": "http://loinc.org",
                "code": "59284-0"
              }
            ]
          }
        ],
        "patient": {
          "reference": "Patient/Example_Patient_54781014"
        },
        "dateTime": "2022-10-06T00:00:00+02:00",
        "policyRule": {
          "coding": [
            {
              "system": "http://uk-koeln.de/fhir/CodeSystem/nNGM/nngm-consent-policy-v4",
              "version": "v4",
              "code": "DIGINET"
            }
          ]
        },
        "provision": {
          "type": "permit"
        }
      }
    },
    {
      "resource": {
        "resourceType": "Condition",
        "id": "Example_Condition_Erstdiagnose",
        "meta": {
          "profile": [
            "http://uk-koeln.de/fhir/StructureDefinition/Condition/nNGM/FirstDiagnosis"
          ]
        },
        "code": {
          "coding": [
            {
              "system": "urn:oid:2.16.840.1.113883.6.43.1",
              "code": "8140/3"
            }
          ]
        },
        "bodySite": [
          {
            "coding": [
              {
                "system": "http://terminology.hl7.org/CodeSystem/icd-o-3",
                "code": "C34.0"
              }
            ]
          }
        ],
        "subject": {
          "reference": "Patient/Example_Patient_54781014"
        },
        "onsetDateTime": "2022-05-05",
        "stage": [
          {
            "summary": {
              "coding": [
                {
                  "system": "http://uk-koeln.de/fhir/CodeSystem/nNGM/uiccStagingV8",
                  "code": "IVB"
                }
              ]
            }
          }
        ]
      }
    }
  ]
}